#time,accel_x,accel_y,accel_z
1395.101218,612.876398,148.041188,9326.594869
1395.101537,536.266849,296.082377,9178.553681
1395.101856,459.657299,-0.000000,9178.553681
1395.102175,229.828649,296.082377,9326.594869
1395.102494,229.828649,370.102971,9252.574275
1395.102813,919.314598,-148.041188,9104.533087
1395.103132,383.047749,370.102971,9252.574275
1395.103451,383.047749,444.123565,9326.594869
1395.103770,229.828649,666.185348,9622.677246
1395.104089,383.047749,296.082377,9104.533087
1395.104408,1072.533697,444.123565,9400.615463
1395.104727,536.266849,370.102971,9400.615463
1395.105045,229.828649,370.102971,9326.594869
1395.105364,383.047749,370.102971,9474.636058
1395.105683,459.657299,518.144159,9326.594869
1395.106002,689.485948,370.102971,9326.594869
1395.106321,612.876398,296.082377,9326.594869
1395.106640,459.657299,444.123565,9326.594869
1395.106959,306.438199,444.123565,9252.574275
1395.107278,536.266849,518.144159,9178.553681
1395.107597,842.705048,666.185348,9548.656652
1395.107916,383.047749,296.082377,9252.574275
1395.108235,383.047749,518.144159,9178.553681
1395.108554,459.657299,296.082377,9178.553681
1395.108872,306.438199,370.102971,9178.553681
1395.109191,536.266849,222.061783,9178.553681
1395.109510,766.095498,370.102971,9326.594869
1395.109829,459.657299,370.102971,9400.615463
1395.110148,383.047749,222.061783,9252.574275
1395.110467,153.219100,222.061783,9400.615463
1395.110786,459.657299,592.164754,9548.656652
1395.111105,229.828649,370.102971,9104.533087
1395.111424,306.438199,370.102971,9326.594869
1395.111743,306.438199,296.082377,9400.615463
1395.112062,383.047749,-0.000000,9326.594869
1395.112381,459.657299,444.123565,9326.594869
1395.112699,536.266849,518.144159,9400.615463
1395.113018,153.219100,222.061783,9252.574275
1395.113337,306.438199,518.144159,9326.594869
1395.113656,459.657299,518.144159,9474.636058
1395.113975,536.266849,222.061783,9252.574275
1395.114294,383.047749,74.020594,9252.574275
1395.114613,383.047749,518.144159,9104.533087
1395.114932,459.657299,296.082377,9178.553681
1395.115251,76.609550,518.144159,9548.656652
1395.115570,459.657299,296.082377,9326.594869
1395.115889,229.828649,296.082377,9252.574275
1395.116208,689.485948,444.123565,9178.553681
1395.116526,1072.533697,666.185348,9474.636058
1395.116845,383.047749,444.123565,9400.615463
1395.117164,383.047749,370.102971,9400.615463
1395.117483,383.047749,370.102971,9178.553681
1395.117802,459.657299,370.102971,9178.553681
1395.118121,919.314598,222.061783,9252.574275
1395.118440,383.047749,222.061783,9178.553681
1395.118759,536.266849,444.123565,9326.594869
1395.119078,383.047749,296.082377,9252.574275
1395.119397,306.438199,592.164754,9326.594869
1395.119716,306.438199,370.102971,9326.594869
1395.120035,306.438199,222.061783,9104.533087
1395.120354,383.047749,444.123565,9400.615463
1395.120672,612.876398,296.082377,9326.594869
1395.120991,229.828649,370.102971,9326.594869
1395.121310,612.876398,370.102971,9474.636058
1395.121629,306.438199,222.061783,9252.574275
1395.121948,612.876398,370.102971,9400.615463
1395.122267,459.657299,222.061783,9252.574275
1395.122586,229.828649,518.144159,9252.574275
1395.122905,689.485948,296.082377,9400.615463
1395.123224,536.266849,518.144159,9400.615463
1395.123543,383.047749,296.082377,9400.615463
1395.123862,306.438199,518.144159,9326.594869
1395.124181,229.828649,444.123565,9326.594869
1395.124499,229.828649,666.185348,9326.594869
1395.124818,306.438199,592.164754,9400.615463
1395.125137,306.438199,888.247130,9326.594869
1395.125456,0.000000,962.267725,9252.574275
1395.125775,383.047749,1110.308913,9178.553681
1395.126094,0.000000,962.267725,9104.533087
1395.126413,76.609550,1110.308913,9400.615463
1395.126732,0.000000,962.267725,9400.615463
1395.127051,0.000000,962.267725,9326.594869
1395.127370,0.000000,962.267725,9178.553681
1395.127689,-459.657299,1184.329507,9252.574275
1395.128008,-689.485948,1184.329507,9104.533087
1395.128326,-1225.752797,1258.350101,9178.553681
1395.128645,-1072.533697,1036.288319,8882.471304
1395.128964,-1685.410096,1554.432478,8956.491898
1395.129283,-1991.848295,1702.473667,8882.471304
1395.129602,-2374.896044,1924.535449,8882.471304
1395.129921,-2681.334243,2294.638420,8882.471304
1395.130240,-2911.162892,1924.535449,8808.450710
1395.130559,-2757.943793,2516.700203,8512.368333
1395.130878,-3064.381992,2442.679609,8808.450710
1395.131197,-3447.429741,2368.659014,8956.491898
1395.131516,-3907.087040,2738.761985,9104.533087
1395.131835,-3983.696590,2886.803174,8882.471304
1395.132153,-3983.696590,2960.823768,9104.533087
1395.132472,-3983.696590,3404.947333,9104.533087
1395.132791,-4060.306139,3404.947333,9326.594869
1395.133110,-4290.134789,2960.823768,9326.594869
1395.133429,-4136.915689,3034.844362,9474.636058
1395.133748,-4366.744339,3404.947333,9622.677246
1395.134067,-4826.401637,3108.864956,9622.677246
1395.134386,-4903.011187,3330.926739,9992.780217
1395.134705,-5286.058936,3034.844362,10140.821405
1395.135024,-4749.792088,3404.947333,10066.800811
1395.135343,-4290.134789,3627.009116,9918.759623
1395.135662,-3600.648841,4145.153275,10140.821405
1395.135980,-2834.553343,4145.153275,9918.759623
1395.136299,-2374.896044,4441.235652,9696.697840
1395.136618,-2374.896044,4589.276840,9548.656652
1395.136937,-1608.800546,4959.379811,9400.615463
1395.137256,-1149.143247,5033.400406,8734.430116
1395.137575,-689.485948,5403.503377,8290.306550
1395.137894,-689.485948,5551.544565,7994.224174
1395.138213,-1072.533697,5551.544565,7846.182985
1395.138532,-1608.800546,4885.359217,7920.203579
1395.138851,-2145.067394,4663.297435,8586.388927
1395.139170,-3217.601092,4145.153275,9178.553681
1395.139489,-3447.429741,3478.967927,9622.677246
1395.139808,-4366.744339,3182.885551,9992.780217
1395.140126,-3983.696590,3404.947333,9918.759623
1395.140445,-3753.867940,3182.885551,10140.821405
1395.140764,-3294.210641,3849.070898,9992.780217
1395.141083,-2145.067394,4293.194464,9104.533087
1395.141402,-1302.362347,4589.276840,8364.327145
1395.141721,-536.266849,4145.153275,8068.244768
1395.142040,-383.047749,3404.947333,7550.100608
1395.142359,-842.705048,3404.947333,7105.977043
1395.142678,-1302.362347,3034.844362,7179.997637
1395.142997,-1302.362347,2960.823768,7624.121203
1395.143316,-1072.533697,3108.864956,7920.203579
1395.143635,-995.924147,2886.803174,8068.244768
1395.143953,-459.657299,3256.906145,8290.306550
1395.144272,-995.924147,2590.720797,8734.430116
1395.144591,-1532.190996,1850.514855,9252.574275
1395.144910,-2298.286494,1406.391290,10214.842000
1395.145229,-2298.286494,666.185348,11029.068536
1395.145548,-1838.629195,814.226536,11695.253884
1395.145867,-459.657299,1628.453072,10881.027347
1395.146186,306.438199,2368.659014,9918.759623
1395.146505,536.266849,2220.617826,8882.471304
1395.146824,689.485948,1702.473667,8512.368333
1395.147143,766.095498,1258.350101,8660.409521
1395.147462,383.047749,1406.391290,8808.450710
1395.147780,383.047749,1332.370696,9252.574275
1395.148099,-459.657299,1702.473667,9696.697840
1395.148418,-1072.533697,814.226536,9770.718434
1395.148737,-1608.800546,-148.041188,10584.944971
1395.149056,-2298.286494,-888.247130,11695.253884
1395.149375,-2681.334243,-518.144159,12139.377449
1395.149694,-1762.019645,-222.061783,11769.274478
1395.150013,-2068.457845,666.185348,10658.965565
1395.150332,-2298.286494,444.123565,10066.800811
1395.150651,-1991.848295,888.247130,9474.636058
1395.150970,-1762.019645,1406.391290,8586.388927
1395.151289,-1838.629195,2294.638420,8216.285956
1395.151607,-2068.457845,2590.720797,7772.162391
1395.151926,-2451.505594,2368.659014,7994.224174
1395.152245,-3140.991542,1480.411884,8660.409521
1395.152564,-3907.087040,740.205942,8808.450710
1395.152883,-3524.039291,2442.679609,8956.491898
1395.153202,-3064.381992,3182.885551,7772.162391
1395.153521,-2374.896044,3552.988522,7846.182985
1395.153840,-2221.676944,2442.679609,9030.512492
1395.154159,-2681.334243,2368.659014,9178.553681
1395.154478,-2451.505594,2960.823768,8364.327145
1395.154797,-1991.848295,3701.029710,7920.203579
1395.155116,-1072.533697,3923.091493,8512.368333
1395.155435,-689.485948,3256.906145,8438.347739
1395.155753,-612.876398,3478.967927,8290.306550
1395.156072,-229.828649,4293.194464,7920.203579
1395.156391,1302.362347,4589.276840,7624.121203
1395.156710,1915.238745,4737.318029,7698.141797
1395.157029,1608.800546,3997.112087,7994.224174
1395.157348,1991.848295,3849.070898,7920.203579
1395.157667,1685.410096,2590.720797,8586.388927
1395.157986,2528.115143,2146.597232,9844.739029
1395.158305,2298.286494,1850.514855,10584.944971
1395.158624,1532.190996,1924.535449,10955.047942
1395.158943,1225.752797,1554.432478,10881.027347
1395.159262,2068.457845,888.247130,11103.089130
1395.159580,2604.724693,962.267725,10584.944971
1395.159899,2604.724693,2294.638420,9770.718434
1395.160218,2911.162892,2368.659014,8882.471304
1395.160537,2681.334243,1554.432478,8438.347739
1395.160856,2221.676944,-0.000000,9474.636058
1395.161175,1532.190996,-592.164754,9770.718434
1395.161494,229.828649,-518.144159,10214.842000
1395.161813,-383.047749,-296.082377,10436.903782
1395.162132,-995.924147,-370.102971,11029.068536
1395.162451,-1378.971896,-666.185348,11769.274478
1395.162770,-2068.457845,-148.041188,11547.212695
1395.163089,-2068.457845,-74.020594,11473.192101
1395.163407,-2221.676944,-666.185348,11695.253884
1395.163726,-2068.457845,-1036.288319,11473.192101
1395.164045,-2221.676944,-1258.350101,10584.944971
1395.164364,-2298.286494,-666.185348,10584.944971
1395.164683,-1608.800546,-1480.411884,10288.862594
1395.165002,-536.266849,-888.247130,10362.883188
1395.165321,-306.438199,-0.000000,9400.615463
1395.165640,306.438199,814.226536,8512.368333
1395.165959,536.266849,370.102971,7550.100608
1395.166278,995.924147,740.205942,8364.327145
1395.166594,766.095498,-370.102971,8808.450710
1395.166913,0.000000,-74.020594,7402.059420
1395.167232,689.485948,-296.082377,8586.388927
1395.167551,919.314598,-666.185348,9104.533087
1395.167870,1455.581446,-962.267725,9474.636058
1395.168189,995.924147,-740.205942,9030.512492
1395.168508,1149.143247,518.144159,8956.491898
1395.168827,1762.019645,592.164754,8882.471304
1395.169146,1838.629195,814.226536,8512.368333
1395.169465,1838.629195,1036.288319,8660.409521
1395.169784,1378.971896,888.247130,7698.141797
1395.170103,1149.143247,1480.411884,6957.935855
1395.170422,1915.238745,962.267725,7550.100608
1395.170741,1685.410096,518.144159,7772.162391
1395.171060,1608.800546,740.205942,6957.935855
1395.171379,766.095498,296.082377,8068.244768
1395.171697,306.438199,-0.000000,8660.409521
1395.172016,0.000000,296.082377,9474.636058
1395.172335,0.000000,296.082377,8660.409521
1395.172654,-842.705048,1184.329507,8586.388927
1395.172973,-689.485948,1406.391290,8956.491898
1395.173292,-383.047749,962.267725,9178.553681
1395.173611,0.000000,1036.288319,8734.430116
1395.173930,459.657299,740.205942,8142.265362
1395.174249,306.438199,1406.391290,8142.265362
1395.174568,153.219100,1036.288319,8068.244768
1395.174887,306.438199,1258.350101,8364.327145
1395.175206,76.609550,1554.432478,8438.347739
1395.175525,-536.266849,2960.823768,8142.265362
1395.175844,-1302.362347,2516.700203,8438.347739
1395.176163,-1225.752797,2294.638420,9474.636058
1395.176482,-1685.410096,1850.514855,9622.677246
1395.176801,-2451.505594,962.267725,10066.800811
1395.177119,-2834.553343,740.205942,10807.006753
1395.177438,-2068.457845,444.123565,11251.130318
1395.177757,-2298.286494,222.061783,11547.212695
1395.178076,-842.705048,962.267725,11695.253884
1395.178395,-1072.533697,1628.453072,11029.068536
1395.178714,229.828649,1776.494261,10881.027347
1395.179033,1302.362347,1924.535449,10584.944971
1395.179352,2374.896044,2368.659014,9992.780217
1395.179671,2451.505594,2812.782580,8956.491898
1395.179990,3600.648841,1998.556043,8364.327145
1395.180309,3907.087040,1036.288319,9474.636058
1395.180628,3370.820191,666.185348,9178.553681
1395.180947,2604.724693,740.205942,8956.491898
1395.181266,1685.410096,-0.000000,10066.800811
1395.181585,1225.752797,-148.041188,10732.986159
1395.181904,229.828649,-0.000000,10658.965565
1395.182222,0.000000,518.144159,10881.027347
1395.182541,-536.266849,814.226536,11251.130318
1395.182860,-612.876398,-0.000000,11399.171507
1395.183179,-689.485948,-962.267725,11621.233289
1395.183498,-689.485948,-1110.308913,11251.130318
1395.183817,-689.485948,-222.061783,10881.027347
1395.184136,766.095498,-1110.308913,10584.944971
1395.184455,1302.362347,-1332.370696,10584.944971
1395.184774,2298.286494,-148.041188,9252.574275
1395.185093,2987.772442,962.267725,8142.265362
1395.185412,3753.867940,1258.350101,7254.018232
1395.185731,3830.477490,814.226536,7402.059420
1395.186050,3907.087040,444.123565,7402.059420
1395.186369,2681.334243,-370.102971,7328.038826
1395.186688,1685.410096,-888.247130,7402.059420
1395.187007,1149.143247,-1480.411884,8068.244768
1395.187325,306.438199,-1924.535449,8660.409521
1395.187644,0.000000,-1406.391290,8586.388927
1395.187963,-689.485948,-740.205942,8734.430116
1395.188282,-689.485948,-814.226536,8734.430116
1395.188601,-842.705048,-740.205942,9030.512492
1395.188920,-1302.362347,-1036.288319,9326.594869
1395.189239,-1838.629195,-592.164754,9252.574275
1395.189558,-1915.238745,-296.082377,8734.430116
1395.189877,-1149.143247,-148.041188,9178.553681
1395.190196,-919.314598,-814.226536,9252.574275
1395.190515,-383.047749,-74.020594,8438.347739
1395.190834,76.609550,740.205942,7772.162391
1395.191153,76.609550,-0.000000,7624.121203
1395.191472,459.657299,-74.020594,7846.182985
1395.191791,766.095498,-666.185348,7846.182985
1395.192110,-842.705048,-444.123565,7920.203579
1395.192429,-1302.362347,-518.144159,8068.244768
1395.192747,-1532.190996,-592.164754,8438.347739
1395.193066,-1532.190996,-74.020594,8364.327145
1395.193385,-995.924147,-0.000000,8660.409521
1395.193704,-1532.190996,-518.144159,8512.368333
1395.194023,-1455.581446,-888.247130,9400.615463
1395.194342,-1302.362347,-1184.329507,9844.739029
1395.194661,-919.314598,-518.144159,9696.697840
1395.194980,-153.219100,740.205942,8808.450710
1395.195299,229.828649,1332.370696,9326.594869
1395.195618,1225.752797,1406.391290,9696.697840
1395.195937,1915.238745,1702.473667,9474.636058
1395.196256,2604.724693,2072.576638,8290.306550
1395.196575,2681.334243,1480.411884,9178.553681
1395.196894,3140.991542,518.144159,9474.636058
1395.197213,3753.867940,222.061783,9770.718434
1395.197532,2528.115143,814.226536,8882.471304
1395.197850,2757.943793,370.102971,9474.636058
1395.198169,2451.505594,444.123565,9400.615463
1395.198488,3140.991542,-0.000000,9696.697840
1395.198807,2834.553343,222.061783,9474.636058
1395.199126,2298.286494,740.205942,9548.656652
1395.199445,2298.286494,-592.164754,10362.883188
1395.199764,1455.581446,-888.247130,10436.903782
1395.200083,1608.800546,-444.123565,10362.883188
1395.200402,1608.800546,296.082377,10214.842000
1395.200721,1532.190996,962.267725,10066.800811
1395.201040,2298.286494,888.247130,9326.594869
1395.201359,2068.457845,1332.370696,9104.533087
1395.201678,2221.676944,1258.350101,8586.388927
1395.201997,1685.410096,740.205942,9400.615463
1395.202316,383.047749,-148.041188,9622.677246
1395.202635,0.000000,-1184.329507,9622.677246
1395.202953,-842.705048,-1258.350101,10140.821405
1395.203272,-2451.505594,-1184.329507,10584.944971
1395.203591,-2374.896044,-1480.411884,10510.924376
1395.203910,-2221.676944,-1406.391290,10881.027347
1395.204229,-2834.553343,-592.164754,10140.821405
1395.204548,-3064.381992,-370.102971,9770.718434
1395.204867,-2911.162892,-296.082377,9918.759623
1395.205186,-2451.505594,-740.205942,10362.883188
1395.205505,-2145.067394,-1110.308913,10140.821405
1395.205824,-1838.629195,-1110.308913,9548.656652
1395.206143,-689.485948,-296.082377,9622.677246
1395.206462,153.219100,-148.041188,9400.615463
1395.206781,2145.067394,-296.082377,8660.409521
1395.207100,2681.334243,740.205942,8068.244768
1395.207419,3447.429741,1332.370696,7179.997637
1395.207738,3830.477490,1480.411884,7105.977043
1395.208056,3907.087040,1110.308913,7031.956449
1395.208375,3600.648841,666.185348,7550.100608
1395.208694,2757.943793,1406.391290,7550.100608
1395.209013,2068.457845,592.164754,7846.182985
1395.209332,1762.019645,-222.061783,8660.409521
1395.209651,1455.581446,-296.082377,9474.636058
1395.209970,1532.190996,148.041188,9104.533087
1395.210289,919.314598,222.061783,8512.368333
1395.210608,842.705048,-370.102971,9400.615463
1395.210927,995.924147,-888.247130,10214.842000
1395.211246,1225.752797,-444.123565,9474.636058
1395.211565,842.705048,370.102971,8808.450710
1395.211884,1149.143247,518.144159,9178.553681
1395.212203,2374.896044,222.061783,9178.553681
1395.212522,2451.505594,148.041188,8734.430116
1395.212841,3294.210641,444.123565,8068.244768
1395.213160,2451.505594,592.164754,7179.997637
1395.213478,2451.505594,-0.000000,7698.141797
1395.213797,1838.629195,-888.247130,7920.203579
1395.214116,842.705048,-444.123565,8142.265362
1395.214435,-459.657299,-740.205942,8512.368333
1395.214754,-1149.143247,-1258.350101,9326.594869
1395.215073,-1608.800546,-1850.514855,9696.697840
1395.215392,-2298.286494,-1628.453072,10066.800811
1395.215711,-2911.162892,-1628.453072,10584.944971
1395.216030,-2911.162892,-1702.473667,11399.171507
1395.216349,-3217.601092,-1998.556043,11399.171507
1395.216668,-2987.772442,-1480.411884,11325.150913
1395.216987,-2451.505594,-962.267725,11103.089130
1395.217306,-2298.286494,-518.144159,10732.986159
1395.217625,-766.095498,-0.000000,10066.800811
1395.217944,689.485948,-0.000000,9770.718434
1395.218263,1838.629195,444.123565,9400.615463
1395.218581,2604.724693,666.185348,8216.285956
1395.218900,2911.162892,740.205942,7920.203579
1395.219219,3217.601092,148.041188,8216.285956
1395.219538,2834.553343,370.102971,7476.080014
1395.219857,2451.505594,666.185348,7254.018232
1395.220176,1762.019645,814.226536,7698.141797
1395.220495,2068.457845,-0.000000,8808.450710
1395.220814,1149.143247,-0.000000,8808.450710
1395.221133,306.438199,-0.000000,9104.533087
1395.221452,0.000000,-0.000000,9696.697840
1395.221771,306.438199,-0.000000,10436.903782
1395.222090,0.000000,296.082377,10732.986159
1395.222409,76.609550,740.205942,10362.883188
1395.222728,76.609550,1554.432478,9918.759623
1395.223047,766.095498,1702.473667,9622.677246
1395.223366,1838.629195,1554.432478,9696.697840
1395.223684,2451.505594,2146.597232,9104.533087
1395.224003,2604.724693,2368.659014,8068.244768
1395.224322,2757.943793,2368.659014,7698.141797
1395.224641,2604.724693,1332.370696,7994.224174
1395.224960,2528.115143,1110.308913,7994.224174
1395.225279,1225.752797,740.205942,8142.265362
1395.225598,459.657299,518.144159,8512.368333
1395.225917,-153.219100,296.082377,8956.491898
1395.226236,-306.438199,-0.000000,9918.759623
1395.226555,-842.705048,-0.000000,10066.800811
1395.226874,-1532.190996,-0.000000,9992.780217
1395.227193,-1532.190996,-74.020594,10214.842000
1395.227512,-1378.971896,-74.020594,10881.027347
1395.227831,-1685.410096,-0.000000,11251.130318
1395.228150,-1608.800546,1036.288319,10584.944971
1395.228469,-1149.143247,1554.432478,10288.862594
1395.228788,-459.657299,1184.329507,10214.842000
1395.229106,612.876398,1406.391290,10066.800811
1395.229425,1149.143247,1924.535449,9474.636058
1395.229744,1302.362347,1924.535449,8882.471304
1395.230063,1378.971896,888.247130,9178.553681
1395.230382,1149.143247,518.144159,9400.615463
1395.230701,612.876398,814.226536,8660.409521
1395.231020,0.000000,888.247130,8882.471304
1395.231339,-229.828649,296.082377,9104.533087
1395.231658,-612.876398,222.061783,9400.615463
1395.231977,-306.438199,444.123565,9326.594869
1395.232296,-766.095498,740.205942,9030.512492
1395.232615,-612.876398,148.041188,9326.594869
1395.232934,-459.657299,-222.061783,9622.677246
1395.233253,-229.828649,-222.061783,9326.594869
1395.233572,0.000000,296.082377,9030.512492
1395.233891,0.000000,888.247130,9178.553681
1395.234209,689.485948,962.267725,9104.533087
1395.234528,1991.848295,1628.453072,8882.471304
1395.234847,2374.896044,1554.432478,8290.306550
1395.235166,2298.286494,1036.288319,8216.285956
1395.235485,2298.286494,814.226536,7920.203579
1395.235804,2145.067394,148.041188,9030.512492
1395.236123,1532.190996,148.041188,8512.368333
1395.236442,995.924147,-0.000000,8808.450710
1395.236761,536.266849,-74.020594,8956.491898
1395.237080,76.609550,-518.144159,9474.636058
1395.237399,306.438199,-1184.329507,9992.780217
1395.237718,0.000000,-814.226536,9622.677246
1395.238037,229.828649,-888.247130,9326.594869
1395.238356,536.266849,-1184.329507,9992.780217
1395.238675,383.047749,-1258.350101,10140.821405
1395.238994,995.924147,-814.226536,9548.656652
1395.239312,1225.752797,-0.000000,8956.491898
1395.239631,1685.410096,222.061783,8734.430116
1395.239950,2451.505594,222.061783,8808.450710
1395.240269,2528.115143,148.041188,8882.471304
1395.240588,2757.943793,444.123565,8290.306550
1395.240907,2068.457845,592.164754,8142.265362
1395.241226,1608.800546,-74.020594,8882.471304
1395.241545,1762.019645,-740.205942,9844.739029
1395.241864,842.705048,-0.000000,9030.512492
1395.242183,0.000000,370.102971,8734.430116
1395.242502,-383.047749,518.144159,9918.759623
1395.242821,-383.047749,370.102971,9696.697840
1395.243140,-1149.143247,666.185348,9696.697840
1395.243459,-1532.190996,814.226536,9400.615463
1395.243778,-1608.800546,666.185348,9548.656652
1395.244097,-1455.581446,-74.020594,9918.759623
1395.244415,-1149.143247,370.102971,10214.842000
1395.244734,-1991.848295,370.102971,9918.759623
1395.245053,-1991.848295,1036.288319,9474.636058
1395.245372,-766.095498,1258.350101,9844.739029
1395.245691,76.609550,1480.411884,9548.656652
1395.246010,612.876398,1554.432478,8956.491898
1395.246329,536.266849,2294.638420,8438.347739
1395.246648,842.705048,1850.514855,8438.347739
1395.246967,842.705048,1480.411884,8734.430116
1395.247286,842.705048,1554.432478,8882.471304
1395.247605,306.438199,2146.597232,8734.430116
1395.247924,-306.438199,1998.556043,8734.430116
1395.248243,-153.219100,2220.617826,8882.471304
1395.248562,0.000000,2368.659014,9474.636058
1395.248881,-229.828649,2442.679609,8956.491898
1395.249200,-536.266849,2220.617826,9474.636058
1395.249519,-536.266849,1332.370696,10288.862594
1395.249837,-459.657299,1184.329507,10658.965565
1395.250156,-612.876398,1036.288319,10658.965565
1395.250475,-612.876398,1776.494261,10510.924376
1395.250794,-229.828649,1406.391290,10288.862594
1395.251113,1072.533697,1554.432478,10510.924376
1395.251432,1225.752797,1628.453072,9992.780217
1395.251751,2068.457845,2220.617826,8808.450710
1395.252070,2068.457845,1702.473667,8660.409521
1395.252389,2298.286494,740.205942,9474.636058
1395.252708,2298.286494,370.102971,9030.512492
1395.253027,1608.800546,740.205942,8364.327145
1395.253346,842.705048,740.205942,8734.430116
1395.253665,766.095498,666.185348,8956.491898
1395.253984,689.485948,962.267725,9326.594869
1395.254303,842.705048,1554.432478,8956.491898
1395.254622,229.828649,1332.370696,8882.471304
1395.254940,-766.095498,-0.000000,9474.636058
1395.255259,-459.657299,-1184.329507,10732.986159
1395.255578,-919.314598,-1184.329507,10807.006753
1395.255897,-1378.971896,-370.102971,9844.739029
1395.256216,-1608.800546,74.020594,10436.903782
1395.256535,-229.828649,592.164754,9696.697840
1395.256854,153.219100,888.247130,9696.697840
1395.257173,689.485948,296.082377,9178.553681
1395.257492,459.657299,-0.000000,8660.409521
1395.257811,306.438199,-518.144159,8438.347739
1395.258130,612.876398,-1258.350101,9252.574275
1395.258449,306.438199,-962.267725,8882.471304
1395.258768,-306.438199,-962.267725,7772.162391
1395.259087,0.000000,-740.205942,8586.388927
1395.259406,0.000000,-740.205942,8216.285956
1395.259725,536.266849,-666.185348,8142.265362
1395.260043,0.000000,444.123565,7698.141797
1395.260362,0.000000,370.102971,7920.203579
1395.260681,0.000000,-74.020594,8512.368333
1395.261000,-153.219100,-0.000000,9326.594869
1395.261319,306.438199,-0.000000,8882.471304
1395.261638,0.000000,296.082377,8882.471304
1395.261957,153.219100,592.164754,9326.594869
1395.262276,689.485948,-0.000000,9252.574275
1395.262595,1072.533697,1036.288319,9252.574275
1395.262914,1149.143247,1258.350101,8512.368333
1395.263233,1685.410096,1184.329507,8438.347739
1395.263552,1762.019645,740.205942,9030.512492
1395.263871,1685.410096,666.185348,9474.636058
1395.264190,1378.971896,1406.391290,8512.368333
1395.264509,1302.362347,1554.432478,8216.285956
1395.264828,1378.971896,592.164754,9548.656652
1395.265147,1302.362347,518.144159,9400.615463
1395.265465,1378.971896,592.164754,8438.347739
1395.265784,1072.533697,888.247130,8216.285956
1395.266103,1225.752797,444.123565,8438.347739
1395.266422,1149.143247,-0.000000,9030.512492
1395.266741,612.876398,370.102971,9030.512492
1395.267060,536.266849,444.123565,9326.594869
1395.267379,153.219100,666.185348,9474.636058
1395.267698,536.266849,888.247130,9992.780217
1395.268017,995.924147,1184.329507,10066.800811
1395.268336,612.876398,2072.576638,9252.574275
1395.268655,459.657299,1776.494261,9400.615463
1395.268974,612.876398,814.226536,10436.903782
1395.269293,306.438199,-0.000000,10510.924376
1395.269611,-459.657299,-0.000000,10066.800811
1395.269930,-766.095498,370.102971,9918.759623
1395.270249,-1072.533697,-148.041188,10955.047942
1395.270568,-1225.752797,-222.061783,11177.109724
1395.270887,-1378.971896,-0.000000,10140.821405
1395.271206,-1455.581446,296.082377,10140.821405
1395.271525,-919.314598,-148.041188,10066.800811
1395.271844,-1225.752797,-592.164754,10288.862594
1395.272163,-766.095498,-814.226536,10436.903782
1395.272481,-1149.143247,-74.020594,9992.780217
1395.272800,-306.438199,-74.020594,9844.739029
1395.273119,459.657299,-0.000000,9918.759623
1395.273438,995.924147,296.082377,9400.615463
1395.273757,1762.019645,592.164754,9030.512492
1395.274076,1915.238745,1850.514855,7994.224174
1395.274395,2451.505594,1406.391290,8290.306550
1395.274714,2298.286494,1110.308913,8512.368333
1395.275033,1302.362347,1480.411884,8438.347739
1395.275351,536.266849,1628.453072,8512.368333
1395.275670,153.219100,1258.350101,8586.388927
1395.275989,229.828649,666.185348,9474.636058
1395.276308,-229.828649,592.164754,9844.739029
1395.276627,-612.876398,444.123565,9252.574275
1395.276946,0.000000,-0.000000,9474.636058
1395.277265,0.000000,-592.164754,9400.615463
1395.277584,153.219100,-814.226536,9548.656652
1395.277903,229.828649,-0.000000,9400.615463
1395.278221,306.438199,814.226536,8808.450710
1395.278540,1225.752797,370.102971,8512.368333
1395.278859,1532.190996,370.102971,8068.244768
1395.279178,1838.629195,814.226536,7624.121203
1395.279497,1838.629195,518.144159,7254.018232
1395.279816,1915.238745,518.144159,7179.997637
1395.280135,1838.629195,-666.185348,8142.265362
1395.280454,1455.581446,-592.164754,8586.388927
1395.280773,383.047749,-296.082377,9030.512492
1395.281091,0.000000,-370.102971,9178.553681
1395.281410,-153.219100,-814.226536,9844.739029
1395.281729,-306.438199,-1036.288319,10510.924376
1395.282048,-306.438199,-296.082377,10288.862594
1395.282367,-919.314598,-0.000000,9696.697840
1395.282686,-459.657299,-444.123565,9918.759623
1395.283005,-383.047749,-1036.288319,10362.883188
1395.283324,-153.219100,-814.226536,9918.759623
1395.283643,-229.828649,-74.020594,9326.594869
1395.283961,153.219100,-0.000000,9326.594869
1395.284280,842.705048,-74.020594,9252.574275
1395.284599,1302.362347,-0.000000,8660.409521
1395.284918,1378.971896,444.123565,8512.368333
1395.285237,1455.581446,296.082377,8068.244768
1395.285556,1149.143247,-370.102971,8734.430116
1395.285875,995.924147,-296.082377,8956.491898
1395.286194,229.828649,370.102971,8734.430116
1395.286513,-306.438199,296.082377,8660.409521
1395.286831,-919.314598,370.102971,9030.512492
1395.287150,-995.924147,666.185348,9548.656652
1395.287469,-766.095498,222.061783,9474.636058
1395.287788,-995.924147,518.144159,9622.677246
1395.288107,-459.657299,444.123565,9622.677246
1395.288426,0.000000,740.205942,9770.718434
1395.288745,306.438199,592.164754,10140.821405
1395.289064,459.657299,666.185348,9844.739029
1395.289383,995.924147,1332.370696,9474.636058
1395.289701,1455.581446,1184.329507,8956.491898
1395.290020,2374.896044,1702.473667,8882.471304
1395.290339,2604.724693,1702.473667,8586.388927
1395.290658,2911.162892,1406.391290,8068.244768
1395.290977,2681.334243,-0.000000,8512.368333
1395.291296,2298.286494,-370.102971,9178.553681
1395.291615,2451.505594,-740.205942,9252.574275
1395.291934,1762.019645,-148.041188,9030.512492
1395.292253,1685.410096,-0.000000,8956.491898
1395.292571,1915.238745,-592.164754,9696.697840
1395.292890,2068.457845,-0.000000,9474.636058
1395.293209,1685.410096,-74.020594,9400.615463
1395.293528,1532.190996,-148.041188,9030.512492
1395.293847,1302.362347,-518.144159,9252.574275
1395.294166,1225.752797,-814.226536,9770.718434
1395.294485,536.266849,-444.123565,9548.656652
1395.294804,76.609550,-0.000000,9548.656652
1395.295123,0.000000,222.061783,9844.739029
1395.295441,-153.219100,888.247130,9992.780217
1395.295760,842.705048,148.041188,9622.677246
1395.296079,229.828649,592.164754,9770.718434
1395.296398,0.000000,518.144159,9474.636058
1395.296717,0.000000,-370.102971,9992.780217
1395.297036,-306.438199,-962.267725,10140.821405
1395.297355,-612.876398,-740.205942,9622.677246
1395.297674,-536.266849,-0.000000,9326.594869
1395.297993,-766.095498,222.061783,9178.553681
1395.298311,-306.438199,-444.123565,9326.594869
1395.298630,-306.438199,-148.041188,8438.347739
1395.298949,-153.219100,444.123565,8216.285956
1395.299268,-229.828649,296.082377,8142.265362
1395.299587,-612.876398,-592.164754,9178.553681
1395.299906,-995.924147,-1258.350101,9474.636058
1395.300225,-1072.533697,-296.082377,9474.636058
1395.300544,-1072.533697,-518.144159,9326.594869
1395.300862,-612.876398,-444.123565,9918.759623
1395.301181,306.438199,-518.144159,10288.862594
1395.301500,919.314598,148.041188,9178.553681
1395.301819,2221.676944,444.123565,8734.430116
1395.302138,1762.019645,444.123565,8882.471304
1395.302457,2451.505594,370.102971,8734.430116
1395.302776,2221.676944,518.144159,7772.162391
1395.303095,1915.238745,1110.308913,7994.224174
1395.303414,1378.971896,1258.350101,8068.244768
1395.303732,2068.457845,518.144159,8290.306550
1395.304051,2068.457845,592.164754,8512.368333
1395.304370,1532.190996,740.205942,8438.347739
1395.304689,1225.752797,444.123565,8660.409521
1395.305008,1302.362347,-222.061783,9178.553681
1395.305327,1455.581446,-444.123565,9918.759623
1395.305646,1455.581446,-370.102971,9474.636058
1395.305965,842.705048,-370.102971,9770.718434
1395.306284,1608.800546,-444.123565,9844.739029
1395.306602,1991.848295,148.041188,9474.636058
1395.306921,2374.896044,740.205942,8290.306550
1395.307240,2221.676944,1480.411884,7698.141797
1395.307559,2145.067394,1184.329507,7846.182985
1395.307878,1608.800546,444.123565,7994.224174
1395.308197,1072.533697,518.144159,8142.265362
1395.308516,306.438199,740.205942,8882.471304
1395.308835,-1072.533697,666.185348,8956.491898
1395.309154,-1225.752797,-0.000000,9474.636058
1395.309472,-2068.457845,-592.164754,10362.883188
1395.309791,-2604.724693,-296.082377,10658.965565
1395.310110,-2911.162892,-444.123565,10955.047942
1395.310429,-2681.334243,-592.164754,10955.047942
1395.310748,-2987.772442,-888.247130,11621.233289
1395.311067,-1991.848295,-444.123565,11843.295072
1395.311386,-1532.190996,370.102971,10362.883188
1395.311705,-1225.752797,444.123565,9918.759623
1395.312024,-229.828649,666.185348,9622.677246
1395.312342,919.314598,1036.288319,9474.636058
1395.312661,1991.848295,1110.308913,8290.306550
1395.312980,2451.505594,1702.473667,7772.162391
1395.313299,2834.553343,592.164754,8290.306550
1395.313618,3140.991542,148.041188,8438.347739
1395.313937,2451.505594,740.205942,8364.327145
1395.314256,2068.457845,1036.288319,7994.224174
1395.314575,1225.752797,1110.308913,8512.368333
1395.314894,766.095498,666.185348,9474.636058
1395.315212,-383.047749,296.082377,9622.677246
1395.315531,-229.828649,1406.391290,9696.697840
1395.315850,-306.438199,1036.288319,10288.862594
1395.316169,-536.266849,296.082377,10510.924376
1395.316488,-229.828649,-0.000000,10807.006753
1395.316807,-229.828649,740.205942,10510.924376
1395.317126,0.000000,1554.432478,9548.656652
1395.317445,766.095498,1406.391290,9918.759623
1395.317764,1915.238745,1554.432478,9918.759623
1395.318082,2451.505594,1850.514855,9252.574275
1395.318401,2987.772442,2072.576638,8142.265362
1395.318720,2834.553343,1702.473667,8142.265362
1395.319039,2911.162892,1110.308913,8216.285956
1395.319358,2528.115143,1110.308913,7698.141797
1395.319677,1532.190996,1036.288319,8364.327145
1395.319996,612.876398,518.144159,8216.285956
1395.320315,0.000000,222.061783,8438.347739
1395.320634,0.000000,-666.185348,9918.759623
1395.320952,-919.314598,-740.205942,9622.677246
1395.321271,-1608.800546,-0.000000,9548.656652
1395.321590,-1532.190996,-1036.288319,10584.944971
1395.321909,-1532.190996,-444.123565,11029.068536
1395.322228,-1378.971896,-444.123565,10584.944971
1395.322547,-1532.190996,148.041188,10584.944971
1395.322866,-306.438199,222.061783,10732.986159
1395.323185,459.657299,222.061783,10288.862594
1395.323504,1378.971896,740.205942,9252.574275
1395.323822,2298.286494,1036.288319,8956.491898
1395.324141,2451.505594,592.164754,8512.368333
1395.324460,2681.334243,370.102971,8216.285956
1395.324779,2681.334243,-148.041188,8586.388927
1395.325098,2298.286494,-74.020594,7698.141797
1395.325417,1532.190996,-370.102971,7920.203579
1395.325736,995.924147,-1184.329507,9326.594869
1395.326055,229.828649,-1924.535449,9548.656652
1395.326374,-76.609550,-1628.453072,9178.553681
1395.326692,-766.095498,-740.205942,9104.533087
1395.327011,-612.876398,-1406.391290,9844.739029
1395.327330,-689.485948,-962.267725,9844.739029
1395.327649,-766.095498,-1110.308913,10140.821405
1395.327968,-383.047749,1110.308913,9918.759623
1395.328287,-306.438199,1998.556043,8512.368333
1395.328606,306.438199,1924.535449,8216.285956
1395.328925,1455.581446,1110.308913,9400.615463
1395.329244,1072.533697,1702.473667,8512.368333
1395.329562,1838.629195,1554.432478,7846.182985
1395.329881,1302.362347,1184.329507,7476.080014
1395.330200,1072.533697,370.102971,8216.285956
1395.330519,612.876398,-222.061783,8438.347739
1395.330838,153.219100,-0.000000,9548.656652
1395.331157,-229.828649,222.061783,9326.594869
1395.331476,-1072.533697,2664.741391,8068.244768
1395.331795,-306.438199,2442.679609,7994.224174
1395.332114,-1762.019645,2960.823768,7105.977043
1395.332432,-1991.848295,222.061783,9104.533087
1395.332751,-2221.676944,-1036.288319,10436.903782
1395.333070,-2068.457845,-222.061783,10955.047942
1395.333389,-1149.143247,814.226536,9548.656652
1395.333708,-1149.143247,1406.391290,9548.656652
1395.334027,0.000000,1110.308913,10362.883188
1395.334346,1072.533697,962.267725,10214.842000
1395.334665,1072.533697,1480.411884,8660.409521
1395.334984,1915.238745,3552.988522,8808.450710
1395.335302,2604.724693,4219.173869,8216.285956
1395.335621,1991.848295,3478.967927,7698.141797
1395.335940,1455.581446,1776.494261,9252.574275
1395.336259,689.485948,740.205942,10140.821405
1395.336578,-919.314598,-0.000000,8882.471304
1395.336897,-536.266849,962.267725,10214.842000
1395.337216,-306.438199,740.205942,10658.965565
1395.337535,-536.266849,814.226536,10362.883188
1395.337854,-995.924147,592.164754,10140.821405
1395.338172,-306.438199,-740.205942,11621.233289
1395.338491,-459.657299,-1702.473667,11547.212695
1395.338810,76.609550,-222.061783,10732.986159
1395.339129,76.609550,1184.329507,10955.047942
1395.339448,229.828649,962.267725,9918.759623
1395.339767,842.705048,666.185348,10362.883188
1395.340086,1378.971896,444.123565,10362.883188
1395.340405,2451.505594,962.267725,9474.636058
1395.340724,2298.286494,1776.494261,8142.265362
1395.341042,2528.115143,1850.514855,8512.368333
1395.341361,2068.457845,518.144159,8808.450710
1395.341680,1455.581446,-0.000000,9104.533087
1395.341999,383.047749,-888.247130,9918.759623
1395.342318,-383.047749,-666.185348,10584.944971
1395.342637,-536.266849,-518.144159,10288.862594
1395.342956,-612.876398,-222.061783,9918.759623
1395.343275,-1302.362347,-74.020594,9770.718434
1395.343594,-1762.019645,-74.020594,9918.759623
1395.343912,-1685.410096,-0.000000,9918.759623
1395.344231,-1072.533697,-0.000000,9474.636058
1395.344550,-995.924147,296.082377,9178.553681
1395.344869,-306.438199,592.164754,9548.656652
1395.345188,76.609550,-74.020594,9622.677246
1395.345507,1149.143247,592.164754,9252.574275
1395.345826,1685.410096,1628.453072,7994.224174
1395.346145,2451.505594,1702.473667,7402.059420
1395.346464,2528.115143,666.185348,7328.038826
1395.346782,2757.943793,296.082377,7328.038826
1395.347101,2528.115143,592.164754,7698.141797
1395.347420,1608.800546,1184.329507,6809.894666
1395.347739,1149.143247,1036.288319,7105.977043
1395.348058,459.657299,148.041188,7920.203579
1395.348377,306.438199,-518.144159,8512.368333
1395.348696,-689.485948,-296.082377,8586.388927
1395.349015,-995.924147,-0.000000,8734.430116
1395.349334,-1149.143247,-0.000000,8956.491898
1395.349652,-766.095498,-296.082377,9474.636058
1395.349971,-766.095498,-296.082377,9770.718434
1395.350290,-995.924147,-74.020594,9770.718434
1395.350609,-766.095498,-0.000000,9696.697840
1395.350928,306.438199,666.185348,10066.800811
1395.351247,1149.143247,1406.391290,9178.553681
1395.351566,1762.019645,1850.514855,8364.327145
1395.351885,1838.629195,1332.370696,8142.265362
1395.352204,2221.676944,296.082377,8586.388927
1395.352522,2145.067394,222.061783,8216.285956
1395.352841,1915.238745,444.123565,8142.265362
1395.353160,1225.752797,962.267725,8068.244768
1395.353479,612.876398,-296.082377,8956.491898
1395.353798,0.000000,-814.226536,10066.800811
1395.354117,-689.485948,-814.226536,9770.718434
1395.354436,-536.266849,-518.144159,10066.800811
1395.354755,-1378.971896,-592.164754,10214.842000
1395.355074,-1378.971896,-888.247130,11103.089130
1395.355392,-1532.190996,-814.226536,11029.068536
1395.355711,-1685.410096,-222.061783,11029.068536
1395.356030,-1455.581446,370.102971,10955.047942
1395.356349,-153.219100,592.164754,10658.965565
1395.356668,459.657299,1036.288319,10510.924376
1395.356987,1455.581446,1628.453072,9696.697840
1395.357306,1685.410096,1924.535449,8882.471304
1395.357625,2145.067394,1628.453072,8734.430116
1395.357944,2451.505594,1036.288319,9030.512492
1395.358262,2145.067394,962.267725,8512.368333
1395.358581,1532.190996,1480.411884,8290.306550
1395.358900,1532.190996,666.185348,9104.533087
1395.359219,383.047749,-0.000000,9474.636058
1395.359538,0.000000,-444.123565,9400.615463
1395.359857,-383.047749,296.082377,9548.656652
1395.360176,-612.876398,-0.000000,10140.821405
1395.360495,-766.095498,-222.061783,10066.800811
1395.360813,-229.828649,-148.041188,10584.944971
1395.361132,-536.266849,296.082377,9992.780217
1395.361451,-459.657299,962.267725,9474.636058
1395.361770,76.609550,1110.308913,9474.636058
1395.362089,1149.143247,1258.350101,9178.553681
1395.362408,1915.238745,1702.473667,8586.388927
1395.362727,1838.629195,2146.597232,8068.244768
1395.363046,2298.286494,1702.473667,7994.224174
1395.363365,1915.238745,814.226536,8364.327145
1395.363683,1608.800546,222.061783,8512.368333
1395.364002,1072.533697,592.164754,8290.306550
1395.364321,229.828649,518.144159,8216.285956
1395.364640,-306.438199,-0.000000,9326.594869
1395.364959,-612.876398,-148.041188,10214.842000
1395.365278,-766.095498,-148.041188,9400.615463
1395.365597,-1149.143247,-0.000000,9178.553681
1395.365916,-1225.752797,-666.185348,9548.656652
1395.366235,-766.095498,-1480.411884,9844.739029
1395.366553,-689.485948,-1110.308913,9844.739029
1395.366872,-383.047749,-74.020594,9474.636058
1395.367191,-229.828649,-0.000000,8956.491898
1395.367510,919.314598,-74.020594,9178.553681
1395.367829,1991.848295,592.164754,8512.368333
1395.368148,1685.410096,1110.308913,7624.121203
1395.368467,1532.190996,962.267725,7476.080014
1395.368785,1608.800546,592.164754,8068.244768
1395.369104,1685.410096,-370.102971,8512.368333
1395.369423,1225.752797,222.061783,8142.265362
1395.369742,0.000000,222.061783,8660.409521
1395.370061,-842.705048,-74.020594,9252.574275
1395.370380,-1072.533697,-592.164754,9844.739029
1395.370698,-1225.752797,-666.185348,10140.821405
1395.371017,-1455.581446,-0.000000,9992.780217
1395.371336,-1532.190996,-0.000000,10066.800811
1395.371655,-1225.752797,-444.123565,10214.842000
1395.371974,-766.095498,-740.205942,9918.759623
1395.372293,-383.047749,-444.123565,10288.862594
1395.372611,-229.828649,-0.000000,9326.594869
1395.372930,842.705048,-0.000000,9326.594869
1395.373249,1685.410096,-74.020594,9178.553681
1395.373568,2604.724693,148.041188,8512.368333
1395.373887,2834.553343,518.144159,7772.162391
1395.374206,2834.553343,370.102971,7994.224174
1395.374524,2987.772442,592.164754,7846.182985
1395.374843,2681.334243,518.144159,8364.327145
1395.375162,2068.457845,814.226536,8142.265362
1395.375481,1378.971896,444.123565,9104.533087
1395.375800,1072.533697,-148.041188,9622.677246
1395.376119,689.485948,-222.061783,10288.862594
1395.376437,229.828649,-74.020594,10510.924376
1395.376756,-306.438199,-0.000000,10288.862594
1395.377075,-153.219100,-0.000000,11103.089130
1395.377394,459.657299,-0.000000,10955.047942
1395.377713,689.485948,592.164754,10140.821405
1395.378032,1072.533697,888.247130,9992.780217
1395.378350,1455.581446,1332.370696,9548.656652
1395.378669,2068.457845,1258.350101,9474.636058
1395.378988,2681.334243,814.226536,8882.471304
1395.379307,2451.505594,1110.308913,7994.224174
1395.379626,2681.334243,444.123565,7994.224174
1395.379944,2374.896044,-740.205942,8216.285956
1395.380263,1762.019645,-1036.288319,9178.553681
1395.380582,1149.143247,-444.123565,9030.512492
1395.380901,0.000000,148.041188,8142.265362
1395.381220,-459.657299,-518.144159,9326.594869
1395.381539,-536.266849,-592.164754,10362.883188
1395.381857,-919.314598,-148.041188,10140.821405
1395.382176,-1608.800546,148.041188,9770.718434
1395.382495,-1838.629195,-0.000000,10066.800811
1395.382814,-1608.800546,-814.226536,11251.130318
1395.383133,-1608.800546,-814.226536,10658.965565
1395.383452,-1378.971896,-0.000000,10066.800811
1395.383770,-1225.752797,740.205942,9400.615463
1395.384089,0.000000,1332.370696,8882.471304
1395.384408,995.924147,1480.411884,8586.388927
1395.384727,1838.629195,1924.535449,8364.327145
1395.385046,1225.752797,1332.370696,8364.327145
1395.385365,1225.752797,962.267725,7698.141797
1395.385683,1225.752797,-0.000000,8068.244768
1395.386002,612.876398,-222.061783,8364.327145
1395.386321,-229.828649,-0.000000,8438.347739
1395.386640,-842.705048,-74.020594,8586.388927
1395.386959,-919.314598,-518.144159,9548.656652
1395.387278,-612.876398,-0.000000,9696.697840
1395.387596,-306.438199,444.123565,9400.615463
1395.387915,0.000000,666.185348,9104.533087
1395.388234,-306.438199,222.061783,9474.636058
1395.388553,0.000000,-0.000000,9918.759623
1395.388872,153.219100,592.164754,9474.636058
1395.389191,459.657299,1776.494261,9400.615463
1395.389509,1302.362347,1184.329507,9326.594869
1395.389828,2221.676944,888.247130,9474.636058
1395.390147,2374.896044,1036.288319,8734.430116
1395.390466,2604.724693,1628.453072,8068.244768
1395.390785,2528.115143,1332.370696,8438.347739
1395.391104,3217.601092,296.082377,9178.553681
1395.391422,2604.724693,-148.041188,8586.388927
1395.391741,1685.410096,370.102971,8438.347739
1395.392060,919.314598,-370.102971,9104.533087
1395.392379,689.485948,-962.267725,9474.636058
1395.392698,536.266849,-1258.350101,9696.697840
1395.393017,-153.219100,-1036.288319,9474.636058
1395.393335,0.000000,-444.123565,9696.697840
1395.393654,0.000000,-740.205942,9992.780217
1395.393973,76.609550,-1184.329507,10140.821405
1395.394292,459.657299,-518.144159,9548.656652
1395.394611,229.828649,296.082377,9474.636058
1395.394930,536.266849,740.205942,9474.636058
1395.395248,1608.800546,296.082377,9474.636058
1395.395567,1455.581446,222.061783,9252.574275
1395.395886,1225.752797,888.247130,8808.450710
1395.396205,995.924147,1036.288319,8438.347739
1395.396524,1302.362347,370.102971,8882.471304
1395.396842,1225.752797,-0.000000,9030.512492
1395.397161,0.000000,518.144159,8734.430116
1395.397480,-1149.143247,444.123565,8512.368333
1395.397799,-1149.143247,370.102971,9252.574275
1395.398118,-995.924147,-296.082377,9548.656652
1395.398437,-1072.533697,-370.102971,9548.656652
1395.398755,-1532.190996,148.041188,9548.656652
1395.399074,-1378.971896,-74.020594,9474.636058
1395.399393,-766.095498,-296.082377,9696.697840
1395.399712,-459.657299,-0.000000,9770.718434
1395.400031,0.000000,666.185348,9400.615463
1395.400350,229.828649,1258.350101,8660.409521
1395.400668,1149.143247,1406.391290,8734.430116
1395.400987,2145.067394,1036.288319,8586.388927
1395.401306,1838.629195,1702.473667,7772.162391
1395.401625,1762.019645,1702.473667,7772.162391
1395.401944,1762.019645,962.267725,8290.306550
1395.402263,1762.019645,518.144159,8882.471304
1395.402581,1225.752797,740.205942,9030.512492
1395.402900,306.438199,1258.350101,9252.574275
1395.403219,0.000000,1406.391290,9474.636058
1395.403538,0.000000,1554.432478,9548.656652
1395.403857,0.000000,1332.370696,10066.800811
1395.404176,0.000000,1406.391290,9474.636058
1395.404494,-383.047749,1702.473667,9770.718434
1395.404813,0.000000,444.123565,9696.697840
1395.405132,0.000000,-296.082377,10584.944971
1395.405451,306.438199,-888.247130,10732.986159
1395.405770,0.000000,-370.102971,10881.027347
1395.406089,459.657299,-0.000000,9696.697840
1395.406407,1838.629195,222.061783,9696.697840
1395.406726,2604.724693,444.123565,9104.533087
1395.407045,2834.553343,740.205942,7994.224174
1395.407364,2528.115143,740.205942,8142.265362
1395.407683,2757.943793,-0.000000,8290.306550
1395.408002,1991.848295,-296.082377,8882.471304
1395.408320,1302.362347,-0.000000,8882.471304
1395.408639,383.047749,-0.000000,9326.594869
1395.408958,229.828649,-222.061783,9770.718434
1395.409277,0.000000,-222.061783,10362.883188
1395.409596,0.000000,444.123565,10140.821405
1395.409915,0.000000,1258.350101,9770.718434
1395.410233,0.000000,518.144159,10066.800811
1395.410552,0.000000,-518.144159,10881.027347
1395.410871,0.000000,-592.164754,10658.965565
1395.411190,0.000000,-0.000000,9844.739029
1395.411509,0.000000,-0.000000,9474.636058
1395.411828,383.047749,148.041188,9622.677246
1395.412146,689.485948,444.123565,8882.471304
1395.412465,919.314598,1258.350101,8068.244768
1395.412784,1072.533697,1258.350101,7550.100608
1395.413103,766.095498,370.102971,7402.059420
1395.413422,612.876398,-148.041188,7920.203579
1395.413741,0.000000,-0.000000,8142.265362
1395.414059,-995.924147,-74.020594,7772.162391
1395.414378,-1762.019645,-222.061783,8438.347739
1395.414697,-1915.238745,-518.144159,9326.594869
1395.415016,-1685.410096,-0.000000,9474.636058
1395.415335,-1838.629195,666.185348,9178.553681
1395.415653,-1762.019645,1036.288319,9326.594869
1395.415972,-1608.800546,296.082377,10066.800811
1395.416291,-1225.752797,518.144159,9918.759623
1395.416610,-1302.362347,740.205942,9770.718434
1395.416929,-842.705048,1998.556043,9474.636058
1395.417248,0.000000,1924.535449,9326.594869
1395.417566,1455.581446,1702.473667,8586.388927
1395.417885,1838.629195,1332.370696,8808.450710
1395.418204,2145.067394,1554.432478,8142.265362
1395.418523,2298.286494,962.267725,7920.203579
1395.418842,2298.286494,-0.000000,8438.347739
1395.419161,2374.896044,-296.082377,8734.430116
1395.419479,1149.143247,444.123565,8512.368333
1395.419798,689.485948,740.205942,8438.347739
1395.420117,459.657299,444.123565,9252.574275
1395.420436,459.657299,296.082377,9548.656652
1395.420755,919.314598,666.185348,9622.677246
1395.421074,0.000000,444.123565,9992.780217
1395.421392,0.000000,-148.041188,10436.903782
1395.421711,153.219100,-370.102971,11103.089130
1395.422030,612.876398,-0.000000,11103.089130
1395.422349,459.657299,1036.288319,10510.924376
1395.422668,995.924147,1406.391290,10214.842000
1395.422987,1685.410096,814.226536,10362.883188
1395.423305,2145.067394,1036.288319,10066.800811
1395.423624,2604.724693,1702.473667,9400.615463
1395.423943,2068.457845,1258.350101,8512.368333
1395.424262,1991.848295,444.123565,8808.450710
1395.424581,1225.752797,148.041188,8956.491898
1395.424900,612.876398,-0.000000,9104.533087
1395.425218,-536.266849,222.061783,8956.491898
1395.425537,-1302.362347,-296.082377,9474.636058
1395.425856,-1762.019645,-666.185348,9696.697840
1395.426175,-2068.457845,-518.144159,10288.862594
1395.426494,-2298.286494,-296.082377,9770.718434
1395.426813,-2451.505594,-74.020594,10066.800811
1395.427131,-1991.848295,-222.061783,10140.821405
1395.427450,-1532.190996,-0.000000,10140.821405
1395.427769,-1149.143247,1036.288319,9622.677246
1395.428088,-306.438199,1554.432478,9474.636058
1395.428407,76.609550,1702.473667,9326.594869
1395.428726,1149.143247,1036.288319,9178.553681
1395.429044,1608.800546,1406.391290,8438.347739
1395.429363,1915.238745,2146.597232,8290.306550
1395.429682,1838.629195,1554.432478,8068.244768
1395.430001,2451.505594,1406.391290,8216.285956
1395.430320,1762.019645,888.247130,8512.368333
1395.430639,1378.971896,1406.391290,7994.224174
1395.430957,612.876398,1480.411884,8364.327145
1395.431276,306.438199,740.205942,8808.450710
1395.431595,459.657299,-0.000000,9400.615463
1395.431914,76.609550,-0.000000,8956.491898
1395.432233,-229.828649,-296.082377,8660.409521
1395.432552,-229.828649,-370.102971,9474.636058
1395.432870,229.828649,-962.267725,10436.903782
1395.433189,0.000000,-370.102971,9400.615463
1395.433508,536.266849,444.123565,9474.636058
1395.433827,689.485948,1036.288319,8956.491898
1395.434146,1838.629195,444.123565,9104.533087
1395.434464,2068.457845,666.185348,8734.430116
1395.434783,2298.286494,1184.329507,8290.306550
1395.435102,2145.067394,666.185348,8068.244768
1395.435421,1838.629195,-0.000000,8734.430116
1395.435740,1762.019645,-518.144159,9400.615463
1395.436059,842.705048,-296.082377,9178.553681
1395.436377,306.438199,-0.000000,8956.491898
1395.436696,-153.219100,-370.102971,9770.718434
1395.437015,-306.438199,-222.061783,9844.739029
1395.437334,-306.438199,-0.000000,9622.677246
1395.437653,-612.876398,296.082377,9474.636058
1395.437972,-689.485948,-148.041188,9918.759623
1395.438290,-842.705048,-666.185348,10140.821405
1395.438609,-766.095498,-666.185348,9696.697840
1395.438928,-842.705048,148.041188,9770.718434
1395.439247,-612.876398,296.082377,9474.636058
1395.439566,-229.828649,296.082377,9696.697840
1395.439885,919.314598,666.185348,9104.533087
1395.440203,995.924147,740.205942,8882.471304
1395.440522,1149.143247,518.144159,9030.512492
1395.440841,1149.143247,370.102971,8512.368333
1395.441160,1225.752797,370.102971,8882.471304
1395.441479,766.095498,148.041188,8882.471304
1395.441798,0.000000,962.267725,8882.471304
1395.442116,-689.485948,814.226536,8882.471304
1395.442435,-536.266849,370.102971,9400.615463
1395.442754,-383.047749,592.164754,9696.697840
1395.443073,-689.485948,814.226536,9030.512492
1395.443392,-383.047749,740.205942,9400.615463
1395.443711,-689.485948,-0.000000,9992.780217
1395.444029,-536.266849,-222.061783,10510.924376
1395.444348,-612.876398,222.061783,10288.862594
1395.444667,-536.266849,740.205942,9622.677246
1395.444986,229.828649,1110.308913,9622.677246
1395.445305,919.314598,740.205942,9770.718434
1395.445624,1915.238745,1184.329507,8882.471304
1395.445942,1915.238745,1924.535449,7772.162391
1395.446261,2298.286494,1258.350101,8216.285956
1395.446580,1838.629195,444.123565,8586.388927
1395.446899,1991.848295,-0.000000,8660.409521
1395.447218,1072.533697,592.164754,8290.306550
1395.447537,612.876398,444.123565,8808.450710
1395.447855,229.828649,-148.041188,9474.636058
1395.448174,153.219100,-74.020594,9696.697840
1395.448493,459.657299,666.185348,9474.636058
1395.448812,153.219100,740.205942,9844.739029
1395.449131,306.438199,296.082377,10066.800811
1395.449450,76.609550,-148.041188,9992.780217
1395.449768,153.219100,-0.000000,10584.944971
1395.450087,76.609550,888.247130,10066.800811
1395.450406,229.828649,666.185348,9400.615463
1395.450725,689.485948,888.247130,9252.574275
1395.451044,1225.752797,814.226536,9548.656652
1395.451363,1838.629195,1184.329507,8438.347739
1395.451681,1762.019645,1110.308913,8142.265362
1395.452000,1608.800546,-222.061783,8808.450710
1395.452319,1149.143247,-518.144159,9030.512492
1395.452638,612.876398,-222.061783,8734.430116
1395.452957,0.000000,-0.000000,8808.450710
1395.453275,-995.924147,-222.061783,9178.553681
1395.453594,-1225.752797,-444.123565,9326.594869
1395.453913,-1302.362347,-0.000000,9622.677246
1395.454232,-1532.190996,444.123565,9474.636058
1395.454551,-1455.581446,-0.000000,10140.821405
1395.454870,-1532.190996,-74.020594,9918.759623
1395.455188,-1072.533697,-370.102971,10510.924376
1395.455507,-766.095498,148.041188,9622.677246
1395.455826,-612.876398,814.226536,9992.780217
1395.456145,612.876398,444.123565,9474.636058
1395.456464,1838.629195,1110.308913,9474.636058
1395.456783,2757.943793,1480.411884,8808.450710
1395.457101,2911.162892,1998.556043,7624.121203
1395.457420,2911.162892,1258.350101,7994.224174
1395.457739,2681.334243,518.144159,8142.265362
1395.458058,2528.115143,444.123565,8364.327145
1395.458377,1608.800546,518.144159,8216.285956
1395.458696,1225.752797,-148.041188,8882.471304
1395.459014,766.095498,-740.205942,9326.594869
1395.459333,76.609550,-1258.350101,9400.615463
1395.459652,-229.828649,-740.205942,9252.574275
1395.459971,-153.219100,-592.164754,9400.615463
1395.460290,-306.438199,-962.267725,9770.718434
1395.460609,-153.219100,-666.185348,10140.821405
1395.460927,76.609550,-74.020594,10214.842000
1395.461246,153.219100,592.164754,9770.718434
1395.461565,536.266849,592.164754,9696.697840
1395.461884,1455.581446,370.102971,9696.697840
1395.462203,2298.286494,444.123565,9622.677246
1395.462522,2298.286494,666.185348,8734.430116
1395.462840,2451.505594,444.123565,8290.306550
1395.463159,2451.505594,-74.020594,8882.471304
1395.463478,2451.505594,-222.061783,8734.430116
1395.463797,1455.581446,-0.000000,8290.306550
1395.464116,229.828649,296.082377,8808.450710
1395.464435,76.609550,-0.000000,9030.512492
1395.464753,-689.485948,-370.102971,9400.615463
1395.465072,-689.485948,-148.041188,9178.553681
1395.465391,-1225.752797,-74.020594,9622.677246
1395.465710,-1762.019645,-1110.308913,9622.677246
1395.466029,-1991.848295,-2072.576638,9992.780217
1395.466348,-1302.362347,-1332.370696,10584.944971
1395.466666,-1072.533697,-0.000000,9474.636058
1395.466985,-689.485948,518.144159,9252.574275
1395.467304,-229.828649,370.102971,9696.697840
1395.467623,1149.143247,962.267725,9252.574275
1395.467942,1608.800546,1702.473667,8216.285956
1395.468261,2451.505594,1850.514855,8068.244768
1395.468579,2145.067394,1406.391290,8290.306550
1395.468898,1915.238745,888.247130,8364.327145
1395.469217,1762.019645,666.185348,8290.306550
1395.469536,1378.971896,814.226536,8512.368333
1395.469854,689.485948,666.185348,8734.430116
1395.470173,306.438199,444.123565,8808.450710
1395.470492,0.000000,592.164754,9400.615463
1395.470810,306.438199,962.267725,8882.471304
1395.471129,0.000000,592.164754,9252.574275
1395.471448,-229.828649,-0.000000,9474.636058
1395.471766,0.000000,-74.020594,9992.780217
1395.472085,-383.047749,-0.000000,9548.656652
1395.472404,-306.438199,888.247130,9474.636058
1395.472722,153.219100,740.205942,9326.594869
1395.473041,1149.143247,962.267725,9474.636058
1395.473360,1915.238745,1036.288319,8290.306550
1395.473678,2145.067394,1850.514855,7994.224174
1395.473997,2451.505594,814.226536,8438.347739
1395.474315,2374.896044,-74.020594,8660.409521
1395.474634,1685.410096,-296.082377,8808.450710
1395.474953,1455.581446,-148.041188,9104.533087
1395.475271,153.219100,-222.061783,9622.677246
1395.475590,-306.438199,-370.102971,9770.718434
1395.475909,-689.485948,-222.061783,10214.842000
1395.476227,-919.314598,370.102971,10066.800811
1395.476546,-766.095498,444.123565,10362.883188
1395.476865,-1149.143247,-0.000000,10066.800811
1395.477183,-995.924147,-962.267725,11547.212695
1395.477502,-919.314598,-814.226536,10881.027347
1395.477821,-766.095498,-518.144159,10584.944971
1395.478139,-153.219100,-148.041188,10584.944971
1395.478458,842.705048,-222.061783,10288.862594
1395.478777,1608.800546,370.102971,9622.677246
1395.479095,2221.676944,814.226536,8512.368333
1395.479414,2681.334243,814.226536,8142.265362
1395.479733,2451.505594,666.185348,8216.285956
1395.480051,1991.848295,-0.000000,8660.409521
1395.480370,1225.752797,-0.000000,8734.430116
1395.480689,383.047749,518.144159,8586.388927
1395.481007,0.000000,-0.000000,8956.491898
1395.481326,-766.095498,-0.000000,9696.697840
1395.481645,-766.095498,222.061783,9696.697840
1395.481963,-766.095498,666.185348,9474.636058
1395.482282,-689.485948,518.144159,9918.759623
1395.482601,-689.485948,-74.020594,10214.842000
1395.482919,-612.876398,-0.000000,9992.780217
1395.483238,-306.438199,1406.391290,9030.512492
1395.483556,0.000000,1554.432478,9400.615463
1395.483875,383.047749,1554.432478,9178.553681
1395.484194,1302.362347,2072.576638,8734.430116
1395.484512,1685.410096,1924.535449,7624.121203
1395.484831,2221.676944,2146.597232,7402.059420
1395.485150,2221.676944,1258.350101,7476.080014
1395.485468,1762.019645,-0.000000,7624.121203
1395.485787,1532.190996,-74.020594,8216.285956
1395.486106,919.314598,222.061783,7994.224174
1395.486424,306.438199,370.102971,8512.368333
1395.486743,383.047749,-444.123565,9326.594869
1395.487062,-153.219100,-666.185348,10140.821405
1395.487380,-306.438199,-296.082377,9474.636058
1395.487699,-689.485948,-0.000000,9474.636058
1395.488018,-612.876398,-0.000000,9918.759623
1395.488336,0.000000,-370.102971,10955.047942
1395.488655,0.000000,222.061783,10436.903782
1395.488974,0.000000,1110.308913,9844.739029
1395.489292,689.485948,1184.329507,9696.697840
1395.489611,1455.581446,740.205942,9918.759623
1395.489930,2068.457845,518.144159,9474.636058
1395.490248,2528.115143,1110.308913,8956.491898
1395.490567,2451.505594,370.102971,9326.594869
1395.490886,1991.848295,-74.020594,9474.636058
1395.491204,2068.457845,-444.123565,8808.450710
1395.491523,1455.581446,370.102971,8364.327145
1395.491842,842.705048,222.061783,8512.368333
1395.492160,229.828649,-666.185348,8956.491898
1395.492479,0.000000,-1036.288319,9326.594869
1395.492797,-306.438199,-666.185348,9474.636058
1395.493116,-1149.143247,-518.144159,9474.636058
1395.493435,-1378.971896,-888.247130,9992.780217
1395.493753,-1608.800546,-1184.329507,10584.944971
1395.494072,-1072.533697,-814.226536,10658.965565
1395.494391,-1302.362347,-0.000000,10288.862594
1395.494709,-919.314598,962.267725,9992.780217
1395.495028,0.000000,1110.308913,9918.759623
1395.495347,766.095498,1184.329507,9400.615463
1395.495665,1225.752797,1628.453072,9252.574275
1395.495984,1762.019645,1850.514855,8660.409521
1395.496303,1685.410096,888.247130,8290.306550
1395.496621,1991.848295,888.247130,8808.450710
1395.496940,1455.581446,666.185348,8512.368333
1395.497259,1072.533697,740.205942,7920.203579
1395.497577,536.266849,666.185348,8142.265362
1395.497896,459.657299,-0.000000,8586.388927
1395.498215,536.266849,148.041188,8660.409521
1395.498533,306.438199,518.144159,8660.409521
1395.498852,229.828649,370.102971,9326.594869
1395.499171,-689.485948,-518.144159,9770.718434
1395.499489,-689.485948,-296.082377,11177.109724
1395.499808,-153.219100,592.164754,10362.883188
1395.500127,-153.219100,1406.391290,9992.780217
1395.500445,383.047749,814.226536,10362.883188
1395.500764,842.705048,962.267725,10214.842000
1395.501083,1838.629195,1406.391290,9326.594869
1395.501401,2145.067394,1776.494261,8364.327145
1395.501720,1915.238745,1406.391290,8142.265362
1395.502038,2145.067394,962.267725,8586.388927
1395.502357,1762.019645,518.144159,8512.368333
1395.502676,995.924147,666.185348,8216.285956
1395.502994,153.219100,740.205942,8068.244768
1395.503313,0.000000,-0.000000,8586.388927
1395.503632,-459.657299,-296.082377,9474.636058
1395.503950,-995.924147,-222.061783,9474.636058
1395.504269,-1685.410096,-0.000000,9474.636058
1395.504588,-1685.410096,-444.123565,9622.677246
1395.504906,-1532.190996,-740.205942,10140.821405
1395.505225,-1455.581446,-370.102971,9992.780217
1395.505544,-1378.971896,888.247130,10066.800811
1395.505862,-1149.143247,888.247130,9474.636058
1395.506181,0.000000,1036.288319,9400.615463
1395.506500,766.095498,1554.432478,9400.615463
1395.506818,1685.410096,1850.514855,8142.265362
1395.507137,1762.019645,1776.494261,7624.121203
1395.507456,1915.238745,962.267725,8364.327145
1395.507774,2298.286494,222.061783,8586.388927
1395.508093,1378.971896,1258.350101,7772.162391
1395.508412,1378.971896,814.226536,8364.327145
1395.508730,612.876398,370.102971,8956.491898
1395.509049,229.828649,-370.102971,9474.636058
1395.509368,76.609550,-296.082377,9400.615463
1395.509686,-153.219100,148.041188,9474.636058
1395.510005,-766.095498,-444.123565,9474.636058
1395.510324,-919.314598,-592.164754,10140.821405
1395.510642,-842.705048,-888.247130,10436.903782
1395.510961,-536.266849,-0.000000,9992.780217
1395.511279,-306.438199,148.041188,9844.739029
1395.511598,306.438199,-222.061783,10066.800811
1395.511917,919.314598,-0.000000,9992.780217
1395.512235,1302.362347,518.144159,8882.471304
1395.512554,1915.238745,1258.350101,8290.306550
1395.512873,2068.457845,814.226536,8586.388927
1395.513191,2298.286494,296.082377,8956.491898
1395.513510,2221.676944,740.205942,8142.265362
1395.513829,1762.019645,740.205942,8438.347739
1395.514147,995.924147,518.144159,8808.450710
1395.514466,459.657299,296.082377,8956.491898
1395.514785,229.828649,-0.000000,9696.697840
1395.515103,-306.438199,370.102971,9548.656652
1395.515422,-306.438199,296.082377,9770.718434
1395.515741,-306.438199,-0.000000,9696.697840
1395.516059,-383.047749,-148.041188,10510.924376
1395.516378,-306.438199,296.082377,10288.862594
1395.516697,-229.828649,962.267725,9844.739029
1395.517015,-306.438199,1184.329507,9770.718434
1395.517334,536.266849,814.226536,9548.656652
1395.517653,995.924147,1036.288319,9030.512492
1395.517971,1762.019645,1554.432478,8660.409521
1395.518290,1915.238745,666.185348,8216.285956
1395.518609,1455.581446,-0.000000,8734.430116
1395.518927,1455.581446,-666.185348,9178.553681
1395.519246,1072.533697,-74.020594,9030.512492
1395.519565,383.047749,370.102971,8734.430116
1395.519883,76.609550,-0.000000,8882.471304
1395.520202,0.000000,222.061783,9178.553681
1395.520520,-229.828649,148.041188,9104.533087
1395.520839,-612.876398,814.226536,8956.491898
1395.521158,-766.095498,-0.000000,9696.697840
1395.521476,-1532.190996,-888.247130,10214.842000
1395.521795,-1608.800546,-814.226536,11029.068536
1395.522114,-1532.190996,-222.061783,10288.862594
1395.522432,-1378.971896,-0.000000,10214.842000
1395.522751,-536.266849,296.082377,10510.924376
1395.523070,459.657299,592.164754,9548.656652
1395.523388,1302.362347,1554.432478,8660.409521
1395.523707,1991.848295,1702.473667,7846.182985
1395.524026,1915.238745,1332.370696,7920.203579
1395.524344,2451.505594,592.164754,8438.347739
1395.524663,1455.581446,518.144159,8216.285956
1395.524982,995.924147,814.226536,7772.162391
1395.525300,306.438199,518.144159,8068.244768
1395.525619,0.000000,222.061783,8734.430116
1395.525938,-383.047749,-0.000000,9178.553681
1395.526256,-459.657299,666.185348,9104.533087
1395.526575,-842.705048,222.061783,9178.553681
1395.526894,-842.705048,-148.041188,10288.862594
1395.527212,-842.705048,-0.000000,10362.883188
1395.527531,-536.266849,666.185348,9844.739029
1395.527850,-459.657299,1702.473667,9770.718434
1395.528168,459.657299,2072.576638,9696.697840
1395.528487,1149.143247,1850.514855,9548.656652
1395.528806,2374.896044,2146.597232,8660.409521
1395.529124,2451.505594,2294.638420,8364.327145
1395.529443,2374.896044,1258.350101,8290.306550
1395.529761,2451.505594,-0.000000,8364.327145
1395.530080,2298.286494,-296.082377,8438.347739
1395.530399,1532.190996,-74.020594,9030.512492
1395.530717,919.314598,-0.000000,8512.368333
1395.531036,153.219100,-444.123565,9252.574275
1395.531355,0.000000,-666.185348,9474.636058
1395.531673,76.609550,-222.061783,9770.718434
1395.531992,-689.485948,-148.041188,9770.718434
1395.532311,-1532.190996,-148.041188,10214.842000
1395.532629,-1532.190996,-962.267725,10510.924376
1395.532948,-1072.533697,-814.226536,10881.027347
1395.533267,-995.924147,-518.144159,10732.986159
1395.533585,-383.047749,-0.000000,10214.842000
1395.533904,919.314598,-0.000000,10214.842000
1395.534223,1608.800546,-0.000000,9844.739029
1395.534541,2221.676944,1184.329507,8808.450710
1395.534860,2604.724693,1406.391290,8290.306550
1395.535179,1991.848295,814.226536,8512.368333
1395.535497,2145.067394,370.102971,8882.471304
1395.535816,1608.800546,962.267725,8512.368333
1395.536135,536.266849,962.267725,8068.244768
1395.536453,229.828649,-0.000000,8882.471304
1395.536772,-612.876398,-444.123565,9400.615463
1395.537091,-842.705048,-666.185348,9474.636058
1395.537409,-919.314598,-0.000000,9178.553681
1395.537728,-842.705048,-74.020594,9622.677246
1395.538047,-536.266849,-888.247130,9992.780217
1395.538365,-229.828649,-0.000000,9548.656652
1395.538684,0.000000,888.247130,9326.594869
1395.539002,459.657299,1554.432478,8734.430116
1395.539321,1072.533697,1332.370696,8512.368333
1395.539640,1225.752797,1184.329507,8660.409521
1395.539958,1838.629195,1924.535449,8364.327145
1395.540277,1915.238745,2220.617826,7179.997637
1395.540596,2068.457845,1480.411884,7772.162391
1395.540914,2068.457845,296.082377,9252.574275
1395.541233,1302.362347,-0.000000,9030.512492
1395.541552,689.485948,296.082377,8882.471304
1395.541870,0.000000,222.061783,9474.636058
1395.542189,-229.828649,-740.205942,10140.821405
1395.542508,-229.828649,-1554.432478,9992.780217
1395.542826,-919.314598,-444.123565,10288.862594
1395.543145,-842.705048,-592.164754,9844.739029
1395.543464,-689.485948,-518.144159,9992.780217
1395.543782,-383.047749,-592.164754,9992.780217
1395.544101,383.047749,-666.185348,9918.759623
1395.544420,76.609550,-0.000000,9474.636058
1395.544738,766.095498,-74.020594,9326.594869
1395.545057,1762.019645,-74.020594,9548.656652
1395.545376,2681.334243,370.102971,9104.533087
1395.545694,2987.772442,814.226536,8882.471304
1395.546013,2681.334243,666.185348,8586.388927
1395.546332,2681.334243,-296.082377,9548.656652
1395.546650,1991.848295,-296.082377,9696.697840
1395.546969,1532.190996,518.144159,9030.512492
1395.547288,383.047749,444.123565,9030.512492
1395.547606,0.000000,222.061783,9844.739029
1395.547925,0.000000,-0.000000,10066.800811
1395.548243,-153.219100,814.226536,9326.594869
1395.548562,-612.876398,444.123565,9252.574275
1395.548881,-383.047749,-0.000000,9992.780217
1395.549199,-536.266849,-296.082377,9770.718434
1395.549518,-383.047749,-518.144159,9992.780217
1395.549837,-919.314598,-370.102971,10066.800811
1395.550155,-459.657299,370.102971,9104.533087
1395.550474,229.828649,592.164754,8882.471304
1395.550793,612.876398,740.205942,8882.471304
1395.551111,919.314598,1258.350101,8216.285956
1395.551430,919.314598,1628.453072,7254.018232
1395.551749,1149.143247,1110.308913,7624.121203
1395.552067,919.314598,-0.000000,8438.347739
1395.552386,612.876398,74.020594,8438.347739
1395.552705,-383.047749,444.123565,8586.388927
1395.553023,-459.657299,296.082377,8882.471304
1395.553342,-383.047749,222.061783,9104.533087
1395.553661,-459.657299,444.123565,9622.677246
1395.553979,-153.219100,1258.350101,9474.636058
1395.554298,153.219100,1850.514855,9474.636058
1395.554617,76.609550,888.247130,9770.718434
1395.554935,76.609550,-0.000000,10214.842000
1395.555254,459.657299,518.144159,9918.759623
1395.555573,1225.752797,1332.370696,9104.533087
1395.555891,1072.533697,1554.432478,8882.471304
1395.556210,1915.238745,1036.288319,8882.471304
1395.556529,2374.896044,1110.308913,8364.327145
1395.556847,2681.334243,1406.391290,7920.203579
1395.557166,2451.505594,666.185348,8364.327145
1395.557484,2451.505594,-444.123565,8808.450710
1395.557803,1685.410096,-296.082377,9252.574275
1395.558122,842.705048,-0.000000,9252.574275
1395.558440,0.000000,148.041188,9474.636058
1395.558759,-536.266849,148.041188,9992.780217
1395.559078,-229.828649,-0.000000,9770.718434
1395.559396,0.000000,444.123565,9696.697840
1395.559715,-459.657299,296.082377,9474.636058
1395.560034,-459.657299,-148.041188,10140.821405
1395.560352,-459.657299,-1184.329507,10807.006753
1395.560671,-766.095498,-666.185348,10732.986159
1395.560990,-459.657299,518.144159,9770.718434
1395.561308,0.000000,666.185348,9918.759623
1395.561627,919.314598,814.226536,9992.780217
1395.561946,1762.019645,740.205942,9474.636058
1395.562264,2068.457845,1036.288319,8438.347739
1395.562583,1991.848295,814.226536,8364.327145
1395.562902,1685.410096,-370.102971,8586.388927
1395.563220,1302.362347,-1036.288319,9474.636058
1395.563539,689.485948,-740.205942,9474.636058
1395.563858,153.219100,-74.020594,8882.471304
1395.564176,0.000000,-0.000000,8808.450710
1395.564495,-229.828649,-444.123565,9622.677246
1395.564814,76.609550,-148.041188,9474.636058
1395.565132,-612.876398,296.082377,9326.594869
1395.565451,-689.485948,-148.041188,9474.636058
1395.565770,-306.438199,-592.164754,10510.924376
1395.566088,0.000000,-666.185348,10362.883188
1395.566407,0.000000,-0.000000,9622.677246
1395.566725,306.438199,370.102971,9770.718434
1395.567044,1378.971896,888.247130,9252.574275
1395.567363,2145.067394,1184.329507,8734.430116
1395.567681,2834.553343,1702.473667,8364.327145
1395.568000,3140.991542,1702.473667,7698.141797
1395.568319,2604.724693,1110.308913,8068.244768
1395.568637,2451.505594,-0.000000,8290.306550
1395.568956,1915.238745,-148.041188,8512.368333
1395.569275,1149.143247,-0.000000,8142.265362
1395.569593,76.609550,-296.082377,8290.306550
1395.569912,-229.828649,-74.020594,8364.327145
1395.570231,-459.657299,-222.061783,9252.574275
1395.570549,-766.095498,-0.000000,9104.533087
1395.570868,-766.095498,-0.000000,9326.594869
1395.571187,-995.924147,-222.061783,9474.636058
1395.571505,-1378.971896,-592.164754,9992.780217
1395.571824,-1225.752797,-74.020594,10362.883188
1395.572143,-689.485948,518.144159,9844.739029
1395.572461,0.000000,1036.288319,9178.553681
1395.572780,612.876398,888.247130,9400.615463
1395.573099,2374.896044,888.247130,9252.574275
1395.573417,2298.286494,1554.432478,7846.182985
1395.573736,2374.896044,740.205942,7994.224174
1395.574054,2374.896044,222.061783,8512.368333
1395.574373,1838.629195,296.082377,8882.471304
1395.574692,1685.410096,740.205942,8586.388927
1395.575010,766.095498,1332.370696,8734.430116
1395.575329,689.485948,-0.000000,9622.677246
1395.575648,689.485948,-296.082377,9548.656652
1395.575966,-153.219100,-370.102971,9474.636058
1395.576285,-383.047749,-370.102971,9548.656652
1395.576604,-1072.533697,-518.144159,9918.759623
1395.576922,-1225.752797,-1628.453072,10807.006753
1395.577241,-995.924147,-740.205942,10881.027347
1395.577560,-1225.752797,-0.000000,10214.842000
1395.577878,-689.485948,962.267725,10214.842000
1395.578197,229.828649,1110.308913,9992.780217
1395.578516,766.095498,1406.391290,9548.656652
1395.578834,1149.143247,1406.391290,9252.574275
1395.579153,1838.629195,1406.391290,8512.368333
1395.579472,1608.800546,370.102971,9030.512492
1395.579790,1455.581446,222.061783,9474.636058
1395.580109,1378.971896,666.185348,8882.471304
1395.580427,919.314598,1480.411884,8364.327145
1395.580746,229.828649,1110.308913,8808.450710
1395.581065,76.609550,814.226536,9326.594869
1395.581383,-76.609550,962.267725,9104.533087
1395.581702,-689.485948,1110.308913,9030.512492
1395.582021,-842.705048,814.226536,9400.615463
1395.582339,-1149.143247,222.061783,9844.739029
1395.582658,-1072.533697,-370.102971,10436.903782
1395.582977,-1072.533697,148.041188,10140.821405
1395.583295,-995.924147,518.144159,9252.574275
1395.583614,0.000000,1036.288319,9030.512492
1395.583933,995.924147,1110.308913,9400.615463
1395.584251,2145.067394,1184.329507,8142.265362
1395.584570,2145.067394,1850.514855,7772.162391
1395.584889,2145.067394,1554.432478,7920.203579
1395.585207,1991.848295,888.247130,8290.306550
1395.585526,1762.019645,444.123565,8364.327145
1395.585845,1149.143247,444.123565,8808.450710
1395.586163,153.219100,-0.000000,8808.450710
1395.586482,-306.438199,-74.020594,9474.636058
1395.586800,0.000000,-0.000000,10066.800811
1395.587119,-383.047749,-0.000000,9992.780217
1395.587438,-306.438199,222.061783,9992.780217
1395.587756,-306.438199,-518.144159,10510.924376
1395.588075,-153.219100,-962.267725,11103.089130
1395.588394,76.609550,-296.082377,10732.986159
1395.588712,536.266849,-222.061783,9548.656652
1395.589031,1149.143247,-0.000000,9770.718434
1395.589350,1378.971896,-74.020594,9104.533087
1395.589668,2221.676944,148.041188,8586.388927
1395.589987,2604.724693,888.247130,7920.203579
1395.590306,2681.334243,592.164754,7772.162391
1395.590624,2221.676944,222.061783,7994.224174
1395.590943,1685.410096,-370.102971,8364.327145
1395.591262,689.485948,-370.102971,8882.471304
1395.591580,-229.828649,-0.000000,8808.450710
1395.591899,-1072.533697,296.082377,9030.512492
1395.592218,-1608.800546,74.020594,9548.656652
1395.592536,-1378.971896,370.102971,10066.800811
1395.592855,-1838.629195,592.164754,9474.636058
1395.593173,-1762.019645,888.247130,9622.677246
1395.593492,-1762.019645,-74.020594,9918.759623
1395.593811,-1225.752797,518.144159,10288.862594
1395.594129,-842.705048,1036.288319,9770.718434
1395.594448,-536.266849,1258.350101,9178.553681
1395.594767,383.047749,1480.411884,9622.677246
1395.595085,1302.362347,1332.370696,8660.409521
1395.595404,2604.724693,2072.576638,7846.182985
1395.595723,2528.115143,2294.638420,7105.977043
1395.596041,2374.896044,1184.329507,7254.018232
1395.596360,2528.115143,-0.000000,8142.265362
1395.596679,1762.019645,-0.000000,8586.388927
1395.596997,1072.533697,592.164754,8290.306550
1395.597316,0.000000,296.082377,8956.491898
1395.597635,-459.657299,-518.144159,9474.636058
1395.597953,-306.438199,-962.267725,9770.718434
1395.598272,-1072.533697,-222.061783,10140.821405
1395.598591,-1225.752797,-0.000000,10436.903782
1395.598909,-919.314598,-814.226536,10807.006753
1395.599228,-689.485948,-888.247130,11621.233289
1395.599547,-153.219100,-0.000000,11473.192101
1395.599865,306.438199,740.205942,10658.965565
1395.600184,1072.533697,592.164754,10066.800811
1395.600502,2221.676944,888.247130,9770.718434
1395.600821,2681.334243,1110.308913,8956.491898
1395.601140,3217.601092,1702.473667,8142.265362
1395.601458,3830.477490,1110.308913,7846.182985
1395.601777,3064.381992,-0.000000,8216.285956
1395.602096,2681.334243,-592.164754,8438.347739
1395.602414,1762.019645,-148.041188,8216.285956
1395.602733,536.266849,-296.082377,8364.327145
1395.603052,0.000000,-740.205942,9400.615463
1395.603370,-612.876398,-740.205942,9918.759623
1395.603689,-1149.143247,222.061783,9474.636058
1395.604008,-1072.533697,-0.000000,9622.677246
1395.604326,-1685.410096,-74.020594,9770.718434
1395.604645,-1149.143247,-1332.370696,11029.068536
1395.604964,-1149.143247,-148.041188,10362.883188
1395.605282,-1225.752797,1776.494261,8882.471304
1395.605601,-229.828649,2220.617826,8364.327145
1395.605920,229.828649,1776.494261,9326.594869
1395.606238,1225.752797,962.267725,9030.512492
1395.606557,1991.848295,1332.370696,8364.327145
1395.606875,1378.971896,2072.576638,7402.059420
1395.607194,1991.848295,888.247130,7994.224174
1395.607513,1838.629195,148.041188,8438.347739
1395.607831,1072.533697,-0.000000,9030.512492
1395.608150,306.438199,-0.000000,8882.471304
1395.608469,-1072.533697,1554.432478,8068.244768
1395.608787,-766.095498,888.247130,8808.450710
1395.609106,-1838.629195,1554.432478,7476.080014
1395.609425,-2451.505594,962.267725,8512.368333
1395.609743,-2681.334243,-1554.432478,9918.759623
1395.610062,-2911.162892,-1110.308913,10955.047942
1395.610381,-1838.629195,-1924.535449,11695.253884
1395.610699,-1378.971896,-74.020594,11473.192101
1395.611018,-306.438199,1258.350101,10510.924376
1395.611337,612.876398,370.102971,9918.759623
1395.611655,842.705048,-0.000000,9844.739029
1395.611974,2528.115143,666.185348,9622.677246
1395.612293,2757.943793,2368.659014,8142.265362
1395.612611,2757.943793,3108.864956,7550.100608
1395.612930,3294.210641,1998.556043,8586.388927
1395.613248,2374.896044,666.185348,8660.409521
1395.613567,1378.971896,-222.061783,8956.491898
1395.613886,995.924147,-222.061783,9400.615463
1395.614204,0.000000,-222.061783,9474.636058
1395.614523,919.314598,-666.185348,10510.924376
1395.614842,383.047749,740.205942,10140.821405
1395.615160,-153.219100,-222.061783,10362.883188
1395.615479,-306.438199,-1184.329507,10658.965565
1395.615798,-459.657299,-666.185348,11103.089130
1395.616116,383.047749,-148.041188,10362.883188
1395.616435,766.095498,1406.391290,9104.533087
1395.616754,689.485948,1776.494261,9326.594869
1395.617072,1225.752797,592.164754,9400.615463
1395.617391,2221.676944,1036.288319,8364.327145
1395.617710,2681.334243,1184.329507,7994.224174
1395.618028,2911.162892,1702.473667,7254.018232
1395.618347,2681.334243,1036.288319,7550.100608
1395.618666,2145.067394,-74.020594,8364.327145
1395.618984,1072.533697,-370.102971,9844.739029
1395.619303,0.000000,-518.144159,9622.677246
1395.619622,-306.438199,-0.000000,9696.697840
1395.619940,-536.266849,-0.000000,9326.594869
1395.620259,-612.876398,-0.000000,9252.574275
1395.620577,-689.485948,-0.000000,8734.430116
1395.620896,-1378.971896,-148.041188,9030.512492
1395.621215,-1532.190996,-962.267725,9696.697840
1395.621533,-1455.581446,-444.123565,9474.636058
1395.621852,-919.314598,222.061783,9548.656652
1395.622171,-1149.143247,814.226536,9400.615463
1395.622489,-766.095498,296.082377,9400.615463
1395.622808,229.828649,592.164754,9104.533087
1395.623127,689.485948,1480.411884,8882.471304
1395.623445,1302.362347,1332.370696,8438.347739
1395.623764,919.314598,518.144159,8586.388927
1395.624083,1072.533697,-296.082377,8734.430116
1395.624401,612.876398,-592.164754,8660.409521
1395.624720,383.047749,370.102971,7994.224174
1395.625039,689.485948,592.164754,7846.182985
1395.625357,229.828649,888.247130,8364.327145
1395.625676,153.219100,592.164754,8734.430116
1395.625995,229.828649,592.164754,9178.553681
1395.626313,-229.828649,740.205942,8882.471304
1395.626632,76.609550,370.102971,9326.594869
1395.626950,0.000000,-0.000000,10214.842000
1395.627269,306.438199,370.102971,9992.780217
1395.627588,0.000000,444.123565,9844.739029
1395.627906,612.876398,370.102971,9696.697840
1395.628225,1532.190996,444.123565,9696.697840
1395.628544,1915.238745,814.226536,8956.491898
1395.628862,2681.334243,1554.432478,8734.430116
1395.629181,2374.896044,1406.391290,8438.347739
1395.629500,1991.848295,-0.000000,8808.450710
1395.629818,2068.457845,-296.082377,9474.636058
1395.630137,1378.971896,148.041188,9548.656652
1395.630456,1072.533697,-0.000000,8586.388927
1395.630774,536.266849,-444.123565,9474.636058
1395.631093,306.438199,-1480.411884,10140.821405
1395.631412,306.438199,-1110.308913,9548.656652
1395.631730,153.219100,-370.102971,9474.636058
1395.632049,0.000000,-1036.288319,10732.986159
1395.632368,-153.219100,-1036.288319,10732.986159
1395.632686,-459.657299,-222.061783,10214.842000
1395.633005,-229.828649,148.041188,10436.903782
1395.633323,153.219100,518.144159,10140.821405
1395.633642,536.266849,444.123565,9474.636058
1395.633961,1455.581446,592.164754,10066.800811
1395.634279,1838.629195,1406.391290,9326.594869
1395.634598,1838.629195,1036.288319,8364.327145
1395.634917,1762.019645,-0.000000,8882.471304
1395.635235,2145.067394,-370.102971,9030.512492
1395.635554,1302.362347,-0.000000,8290.306550
1395.635873,306.438199,1258.350101,8142.265362
1395.636191,-306.438199,1036.288319,8438.347739
1395.636510,-766.095498,592.164754,8882.471304
1395.636829,-1149.143247,370.102971,9696.697840
1395.637147,-1072.533697,222.061783,9548.656652
1395.637466,-1072.533697,-296.082377,9030.512492
1395.637785,-1378.971896,-592.164754,9696.697840
1395.638103,-1149.143247,-1110.308913,10362.883188
1395.638422,-1149.143247,-518.144159,9548.656652
1395.638741,-842.705048,666.185348,9252.574275
1395.639059,76.609550,814.226536,9548.656652
1395.639378,1149.143247,1628.453072,8808.450710
1395.639696,2145.067394,1998.556043,7920.203579
1395.640015,2757.943793,1850.514855,7105.977043
1395.640334,1991.848295,1998.556043,7328.038826
1395.640652,1915.238745,740.205942,8068.244768
1395.640971,1532.190996,592.164754,8734.430116
1395.641290,766.095498,518.144159,8956.491898
1395.641608,229.828649,592.164754,8438.347739
1395.641927,0.000000,296.082377,9252.574275
1395.642246,76.609550,-148.041188,9696.697840
1395.642564,-306.438199,296.082377,9400.615463
1395.642883,-536.266849,-0.000000,9548.656652
1395.643202,-536.266849,-222.061783,9992.780217
1395.643520,-153.219100,-888.247130,10584.944971
1395.643839,-229.828649,-518.144159,10140.821405
1395.644158,0.000000,148.041188,9622.677246
1395.644476,459.657299,222.061783,9474.636058
1395.644795,1149.143247,444.123565,9548.656652
1395.645114,1915.238745,592.164754,8882.471304
1395.645432,2298.286494,1332.370696,8586.388927
1395.645751,2451.505594,1776.494261,8734.430116
1395.646070,2451.505594,-444.123565,9252.574275
1395.646388,1838.629195,-518.144159,9474.636058
1395.646707,1915.238745,-0.000000,9030.512492
1395.647025,919.314598,962.267725,9030.512492
1395.647344,459.657299,444.123565,9474.636058
1395.647663,0.000000,-0.000000,10140.821405
1395.647981,0.000000,-0.000000,10066.800811
1395.648300,0.000000,222.061783,9696.697840
1395.648619,-459.657299,-74.020594,9696.697840
1395.648937,-383.047749,-888.247130,10140.821405
1395.649256,-459.657299,-444.123565,9918.759623
1395.649575,-612.876398,-148.041188,9992.780217
1395.649893,-153.219100,222.061783,9696.697840
1395.650212,76.609550,592.164754,9696.697840
1395.650531,1149.143247,666.185348,9474.636058
1395.650849,1685.410096,1110.308913,8882.471304
1395.651168,1532.190996,888.247130,8438.347739
1395.651487,1608.800546,592.164754,8364.327145
1395.651805,766.095498,-592.164754,8956.491898
1395.652124,612.876398,-0.000000,8956.491898
1395.652443,76.609550,888.247130,8734.430116
1395.652761,0.000000,370.102971,8882.471304
1395.653080,-383.047749,-370.102971,9400.615463
1395.653398,-766.095498,-444.123565,9548.656652
1395.653717,-536.266849,-0.000000,9252.574275
1395.654036,-689.485948,518.144159,9252.574275
1395.654354,-689.485948,222.061783,9548.656652
1395.654673,-229.828649,444.123565,9918.759623
1395.654992,-536.266849,592.164754,9548.656652
1395.655310,-306.438199,888.247130,9326.594869
1395.655629,229.828649,1036.288319,8956.491898
1395.655948,919.314598,1184.329507,9178.553681
1395.656266,995.924147,1332.370696,8512.368333
1395.656585,1991.848295,1480.411884,8142.265362
1395.656904,1991.848295,518.144159,8216.285956
1395.657222,1685.410096,-74.020594,8882.471304
1395.657541,1915.238745,-296.082377,8956.491898
1395.657860,1608.800546,740.205942,8068.244768
1395.658178,842.705048,962.267725,8364.327145
1395.658497,459.657299,370.102971,8956.491898
1395.658816,-153.219100,222.061783,9474.636058
1395.659134,0.000000,-0.000000,9400.615463
1395.659453,0.000000,592.164754,9178.553681
1395.659771,-459.657299,370.102971,9474.636058
1395.660090,-153.219100,-370.102971,9474.636058
1395.660409,-459.657299,-444.123565,9918.759623
1395.660727,-306.438199,-74.020594,9918.759623
1395.661046,-459.657299,-0.000000,9548.656652
1395.661365,536.266849,444.123565,10140.821405
1395.661683,1455.581446,666.185348,9918.759623
1395.662002,1762.019645,1406.391290,8882.471304
1395.662321,1991.848295,1480.411884,8290.306550
1395.662639,2068.457845,1036.288319,8660.409521
1395.662958,1762.019645,148.041188,8808.450710
1395.663277,1302.362347,-0.000000,8586.388927
1395.663595,842.705048,518.144159,8512.368333
1395.663914,-229.828649,-0.000000,9178.553681
1395.664233,-306.438199,-222.061783,9474.636058
1395.664551,-536.266849,-0.000000,9474.636058
1395.664870,-612.876398,666.185348,9326.594869
1395.665189,-842.705048,-0.000000,9474.636058
1395.665507,-995.924147,-296.082377,10140.821405
1395.665826,-1149.143247,-962.267725,11251.130318
1395.666145,-1378.971896,-444.123565,10881.027347
1395.666463,-1302.362347,444.123565,9992.780217
1395.666782,-1149.143247,444.123565,9918.759623
1395.667100,76.609550,444.123565,9844.739029
1395.667419,612.876398,1110.308913,8956.491898
1395.667738,1225.752797,1628.453072,7920.203579
1395.668056,1378.971896,1110.308913,8438.347739
1395.668375,1608.800546,444.123565,8956.491898
1395.668694,1302.362347,296.082377,9104.533087
1395.669012,919.314598,518.144159,8660.409521
1395.669331,153.219100,296.082377,8512.368333
1395.669650,153.219100,-0.000000,9326.594869
1395.669968,536.266849,-296.082377,9548.656652
1395.670287,0.000000,518.144159,9178.553681
1395.670606,0.000000,296.082377,8808.450710
1395.670924,0.000000,-0.000000,9696.697840
1395.671243,-153.219100,-296.082377,9696.697840
1395.671562,383.047749,-0.000000,9696.697840
1395.671880,153.219100,962.267725,9474.636058
1395.672199,766.095498,666.185348,9474.636058
1395.672518,1302.362347,518.144159,9474.636058
1395.672836,2145.067394,888.247130,9400.615463
1395.673155,2528.115143,1110.308913,8882.471304
1395.673474,2681.334243,1554.432478,7994.224174
1395.673792,2757.943793,888.247130,8512.368333
1395.674111,2528.115143,370.102971,8438.347739
1395.674430,1838.629195,666.185348,8142.265362
1395.674748,1302.362347,888.247130,8512.368333
1395.675067,153.219100,740.205942,9178.553681
1395.675386,0.000000,296.082377,9622.677246
1395.675704,0.000000,222.061783,9992.780217
1395.676023,-153.219100,666.185348,9548.656652
1395.676342,-842.705048,370.102971,9474.636058
1395.676660,-919.314598,-148.041188,10066.800811
1395.676979,-1378.971896,-148.041188,10362.883188
1395.677298,-1762.019645,-666.185348,10214.842000
1395.677616,-1455.581446,-0.000000,10140.821405
1395.677935,-919.314598,592.164754,10214.842000
1395.678254,76.609550,518.144159,9474.636058
1395.678572,536.266849,1776.494261,8290.306550
1395.678891,1455.581446,1332.370696,8290.306550
1395.679210,919.314598,1258.350101,8660.409521
1395.679528,766.095498,444.123565,8660.409521
1395.679847,612.876398,148.041188,8882.471304
1395.680166,76.609550,1406.391290,8956.491898
1395.680484,0.000000,814.226536,9178.553681
1395.680803,-383.047749,222.061783,9474.636058
1395.681122,-459.657299,-0.000000,10362.883188
1395.681441,-229.828649,370.102971,9696.697840
1395.681759,-306.438199,962.267725,8956.491898
1395.682078,0.000000,222.061783,9474.636058
1395.682397,153.219100,-222.061783,10214.842000
1395.682715,536.266849,592.164754,9474.636058
1395.683034,612.876398,740.205942,9030.512492
1395.683353,612.876398,222.061783,9252.574275
1395.683671,1532.190996,-0.000000,9474.636058
1395.683990,2221.676944,222.061783,8956.491898
1395.684309,2604.724693,592.164754,8660.409521
1395.684627,2451.505594,-0.000000,8734.430116
1395.684946,2451.505594,-592.164754,9104.533087
1395.685265,2451.505594,-444.123565,8660.409521
1395.685583,2221.676944,444.123565,8142.265362
1395.685902,1302.362347,148.041188,8734.430116
1395.686221,229.828649,-740.205942,9400.615463
1395.686539,0.000000,-962.267725,9474.636058
1395.686858,-536.266849,-592.164754,9622.677246
1395.687177,-842.705048,-222.061783,9770.718434
1395.687495,-1225.752797,-814.226536,10066.800811
1395.687814,-612.876398,-1776.494261,10584.944971
1395.688133,-919.314598,-814.226536,10584.944971
1395.688451,-229.828649,148.041188,9770.718434
1395.688770,-153.219100,666.185348,9400.615463
1395.689089,306.438199,740.205942,8956.491898
1395.689407,1685.410096,518.144159,8586.388927
1395.689726,1532.190996,1184.329507,7772.162391
1395.690045,1608.800546,1036.288319,7624.121203
1395.690363,1378.971896,148.041188,8068.244768
1395.690682,1455.581446,-518.144159,8512.368333
1395.691001,766.095498,-0.000000,8142.265362
1395.691319,-229.828649,444.123565,8438.347739
1395.691638,-306.438199,740.205942,8068.244768
1395.691957,0.000000,888.247130,9326.594869
1395.692275,-306.438199,518.144159,9474.636058
1395.692594,-612.876398,1554.432478,8586.388927
1395.692913,-1225.752797,1406.391290,8882.471304
1395.693231,-842.705048,888.247130,9622.677246
1395.693550,-766.095498,296.082377,10436.903782
1395.693869,-612.876398,-0.000000,9844.739029
1395.694187,-689.485948,1924.535449,9844.739029
1395.694506,76.609550,1406.391290,9622.677246
1395.694825,1608.800546,1332.370696,9400.615463
1395.695143,1915.238745,1628.453072,8882.471304
1395.695462,1991.848295,1480.411884,8142.265362
1395.695781,1762.019645,1036.288319,8068.244768
1395.696099,1685.410096,296.082377,8734.430116
1395.696418,1685.410096,-0.000000,9104.533087
1395.696737,612.876398,962.267725,8512.368333
1395.697055,-306.438199,444.123565,8882.471304
1395.697374,-612.876398,-296.082377,9844.739029
1395.697693,-76.609550,-370.102971,10140.821405
1395.698011,-229.828649,-0.000000,9992.780217
1395.698330,-612.876398,296.082377,9548.656652
1395.698649,-766.095498,-296.082377,10584.944971
1395.698967,0.000000,-148.041188,10584.944971
1395.699286,383.047749,296.082377,10140.821405
1395.699605,306.438199,444.123565,10584.944971
1395.699923,1149.143247,1258.350101,10214.842000
1395.700242,1455.581446,888.247130,10214.842000
1395.700561,1608.800546,666.185348,10140.821405
1395.700880,1991.848295,1406.391290,9400.615463
1395.701198,1532.190996,1110.308913,9178.553681
1395.701517,1455.581446,296.082377,9252.574275
1395.701836,1302.362347,-666.185348,9104.533087
1395.702154,919.314598,-222.061783,8586.388927
1395.702473,76.609550,-0.000000,9030.512492
1395.702792,0.000000,-74.020594,9030.512492
1395.703110,-229.828649,-296.082377,9178.553681
1395.703429,-842.705048,-148.041188,9474.636058
1395.703748,-689.485948,296.082377,9474.636058
1395.704066,-842.705048,148.041188,8956.491898
1395.704385,-612.876398,-74.020594,9474.636058
1395.704704,76.609550,-0.000000,10436.903782
1395.705022,-153.219100,370.102971,9696.697840
1395.705341,0.000000,962.267725,9252.574275
1395.705660,306.438199,740.205942,9104.533087
1395.705978,2145.067394,814.226536,9178.553681
1395.706297,1838.629195,1258.350101,8512.368333
1395.706616,1991.848295,1332.370696,7550.100608
1395.706934,2068.457845,1110.308913,8216.285956
1395.707253,2451.505594,518.144159,8586.388927
1395.707572,1915.238745,370.102971,8290.306550
1395.707890,1378.971896,740.205942,7624.121203
1395.708209,766.095498,814.226536,8216.285956
1395.708528,383.047749,222.061783,8364.327145
1395.708846,229.828649,-518.144159,8734.430116
1395.709165,-306.438199,-0.000000,8586.388927
1395.709484,-459.657299,370.102971,8142.265362
1395.709802,-459.657299,-148.041188,9252.574275
1395.710121,-536.266849,-1184.329507,9844.739029
1395.710440,-842.705048,-666.185348,10288.862594
1395.710758,-612.876398,-0.000000,9548.656652
1395.711077,-306.438199,518.144159,9548.656652
1395.711396,536.266849,444.123565,9992.780217
1395.711714,1302.362347,592.164754,9474.636058
1395.712033,1532.190996,814.226536,9030.512492
1395.712352,1991.848295,370.102971,8438.347739
1395.712670,1915.238745,296.082377,8438.347739
1395.712989,2145.067394,-74.020594,8438.347739
1395.713308,1455.581446,444.123565,8438.347739
1395.713626,1302.362347,592.164754,8216.285956
1395.713945,612.876398,-370.102971,9104.533087
1395.714264,383.047749,-666.185348,9918.759623
1395.714582,229.828649,-370.102971,9770.718434
1395.714901,-612.876398,-0.000000,9252.574275
1395.715220,-689.485948,-592.164754,9992.780217
1395.715538,-995.924147,-1406.391290,10807.006753
1395.715857,-995.924147,-1258.350101,10732.986159
1395.716176,-995.924147,-444.123565,10658.965565
1395.716494,-995.924147,-0.000000,10510.924376
1395.716813,-306.438199,74.020594,10362.883188
1395.717132,536.266849,296.082377,9918.759623
1395.717450,995.924147,888.247130,9326.594869
1395.717769,1532.190996,740.205942,8882.471304
1395.718088,1915.238745,666.185348,9104.533087
1395.718406,2298.286494,518.144159,8882.471304
1395.718725,2145.067394,962.267725,8808.450710
1395.719044,1685.410096,1184.329507,8512.368333
1395.719362,1072.533697,814.226536,9104.533087
1395.719681,536.266849,222.061783,9622.677246
1395.720000,306.438199,296.082377,9474.636058
1395.720319,153.219100,1110.308913,9178.553681
1395.720637,-459.657299,740.205942,9474.636058
1395.720956,-766.095498,-296.082377,9992.780217
1395.721275,-612.876398,-814.226536,10807.006753
1395.721593,-766.095498,-0.000000,10140.821405
1395.721912,-612.876398,814.226536,9474.636058
1395.722231,-153.219100,1184.329507,9178.553681
1395.722549,1149.143247,888.247130,9400.615463
1395.722868,1685.410096,1110.308913,8956.491898
1395.723187,2068.457845,1850.514855,8068.244768
1395.723505,2298.286494,1702.473667,7698.141797
1395.723824,2068.457845,740.205942,7994.224174
1395.724143,1991.848295,666.185348,8512.368333
1395.724461,995.924147,740.205942,8216.285956
1395.724780,383.047749,1036.288319,8142.265362
1395.725099,0.000000,888.247130,8586.388927
1395.725417,-153.219100,518.144159,9474.636058
1395.725736,-459.657299,740.205942,9104.533087
1395.726055,-919.314598,518.144159,9400.615463
1395.726373,-995.924147,-74.020594,10066.800811
1395.726692,-1149.143247,-1036.288319,10584.944971
1395.727011,-1225.752797,-814.226536,10214.842000
1395.727329,-1225.752797,518.144159,9770.718434
1395.727648,-153.219100,296.082377,9622.677246
1395.727967,459.657299,444.123565,9474.636058
1395.728285,1608.800546,740.205942,9030.512492
1395.728604,1991.848295,1036.288319,8290.306550
1395.728923,2451.505594,1110.308913,7328.038826
1395.729241,2298.286494,-0.000000,8512.368333
1395.729560,1149.143247,-888.247130,8734.430116
1395.729879,766.095498,-74.020594,8660.409521
1395.730197,-229.828649,-0.000000,9474.636058
1395.730516,-842.705048,-0.000000,9474.636058
1395.730835,-995.924147,-0.000000,9770.718434
1395.731153,-1455.581446,-0.000000,10140.821405
1395.731472,-1608.800546,222.061783,9918.759623
1395.731791,-1915.238745,-0.000000,10288.862594
1395.732109,-1838.629195,-814.226536,11103.089130
1395.732428,-1378.971896,-1258.350101,11251.130318
1395.732747,-766.095498,-0.000000,10362.883188
1395.733065,-306.438199,740.205942,10066.800811
1395.733384,842.705048,740.205942,9548.656652
1395.733703,1991.848295,1184.329507,8956.491898
1395.734021,3064.381992,2072.576638,7846.182985
1395.734340,3907.087040,2368.659014,7328.038826
1395.734659,3217.601092,1480.411884,7328.038826
1395.734977,3370.820191,592.164754,8142.265362
1395.735296,2681.334243,444.123565,7920.203579
1395.735615,1762.019645,444.123565,7920.203579
1395.735933,995.924147,-148.041188,8956.491898
1395.736252,689.485948,-740.205942,9844.739029
1395.736571,0.000000,-592.164754,9696.697840
1395.736889,0.000000,-0.000000,9696.697840
1395.737208,-536.266849,-74.020594,9844.739029
1395.737527,0.000000,-370.102971,10140.821405
1395.737845,0.000000,-518.144159,10362.883188
1395.738164,-229.828649,-74.020594,10658.965565
1395.738483,76.609550,666.185348,9696.697840
1395.738801,383.047749,592.164754,9696.697840
1395.739120,1608.800546,-0.000000,9696.697840
1395.739439,2298.286494,296.082377,9326.594869
1395.739758,2681.334243,592.164754,8290.306550
1395.740076,3140.991542,666.185348,7994.224174
1395.740395,2757.943793,-0.000000,8290.306550
1395.740714,2528.115143,-444.123565,8438.347739
1395.741032,1838.629195,-0.000000,7772.162391
1395.741351,842.705048,222.061783,7772.162391
1395.741670,0.000000,-518.144159,8808.450710
1395.741988,-842.705048,-1184.329507,9326.594869
1395.742307,-919.314598,-1110.308913,9474.636058
1395.742626,-1991.848295,-444.123565,9178.553681
1395.742944,-2528.115143,-1332.370696,10140.821405
1395.743263,-2298.286494,-1036.288319,10510.924376
1395.743582,-1608.800546,-296.082377,10436.903782
1395.743900,-1608.800546,592.164754,9770.718434
1395.744219,-995.924147,1406.391290,9474.636058
1395.744538,76.609550,1554.432478,9178.553681
1395.744856,1072.533697,1480.411884,8586.388927
1395.745175,1149.143247,1628.453072,7994.224174
1395.745494,1378.971896,1480.411884,7550.100608
1395.745812,1685.410096,1184.329507,7476.080014
1395.746131,1455.581446,518.144159,8142.265362
1395.746450,1149.143247,740.205942,8364.327145
1395.746768,229.828649,1480.411884,8364.327145
1395.747087,-229.828649,888.247130,8734.430116
1395.747406,-459.657299,296.082377,9400.615463
1395.747724,-612.876398,666.185348,9548.656652
1395.748043,-153.219100,1110.308913,9252.574275
1395.748362,-1225.752797,888.247130,9622.677246
1395.748680,-995.924147,-0.000000,10214.842000
1395.748999,-1225.752797,-222.061783,10881.027347
1395.749318,-995.924147,666.185348,10214.842000
1395.749636,-612.876398,1110.308913,9992.780217
1395.749955,306.438199,1406.391290,9696.697840
1395.750274,1378.971896,1258.350101,9844.739029
1395.750592,2604.724693,1480.411884,9474.636058
1395.750911,2911.162892,1480.411884,8438.347739
1395.751230,2987.772442,1258.350101,8734.430116
1395.751548,3064.381992,518.144159,9178.553681
1395.751867,2604.724693,370.102971,9400.615463
1395.752186,1685.410096,962.267725,8586.388927
1395.752504,1149.143247,740.205942,8882.471304
1395.752823,612.876398,-148.041188,10066.800811
1395.753142,536.266849,-444.123565,10214.842000
1395.753460,153.219100,-0.000000,9474.636058
1395.753779,-306.438199,370.102971,9474.636058
1395.754098,0.000000,-222.061783,10214.842000
1395.754416,-383.047749,-666.185348,10658.965565
1395.754735,0.000000,-74.020594,10214.842000
1395.755054,0.000000,814.226536,9696.697840
1395.755372,229.828649,1184.329507,9474.636058
1395.755691,1072.533697,592.164754,9696.697840
1395.756010,1225.752797,296.082377,9252.574275
1395.756328,1302.362347,1184.329507,8142.265362
1395.756647,995.924147,888.247130,8290.306550
1395.756966,1072.533697,296.082377,8364.327145
1395.757284,1149.143247,-148.041188,8364.327145
1395.757603,383.047749,148.041188,8142.265362
1395.757922,-229.828649,444.123565,8216.285956
1395.758240,-1149.143247,-0.000000,8956.491898
1395.758559,-1455.581446,-370.102971,9178.553681
1395.758878,-1378.971896,-222.061783,9104.533087
1395.759197,-2221.676944,-0.000000,9474.636058
1395.759515,-2451.505594,-0.000000,9992.780217
1395.759834,-2221.676944,-296.082377,10436.903782
1395.760153,-1302.362347,-74.020594,10214.842000
1395.760471,-1149.143247,1184.329507,9992.780217
1395.760790,-459.657299,1480.411884,9622.677246
1395.761109,-229.828649,1110.308913,9400.615463
1395.761427,1532.190996,962.267725,9326.594869
1395.761746,2834.553343,1628.453072,8660.409521
1395.762065,2604.724693,1776.494261,7402.059420
1395.762383,2987.772442,962.267725,7624.121203
1395.762702,2987.772442,592.164754,8216.285956
1395.763021,3140.991542,1110.308913,8290.306550
1395.763339,2298.286494,1480.411884,7772.162391
1395.763658,1378.971896,1258.350101,8216.285956
1395.763977,1225.752797,518.144159,9178.553681
1395.764295,1072.533697,-148.041188,9326.594869
1395.764614,766.095498,518.144159,9696.697840
1395.764933,76.609550,-74.020594,9696.697840
1395.765251,-153.219100,-814.226536,10362.883188
1395.765570,0.000000,-1258.350101,10955.047942
1395.765889,0.000000,-518.144159,10584.944971
1395.766207,153.219100,148.041188,10362.883188
1395.766526,766.095498,962.267725,10288.862594
1395.766845,1532.190996,740.205942,10140.821405
1395.767163,2528.115143,518.144159,9400.615463
1395.767482,2911.162892,814.226536,8734.430116
1395.767801,2834.553343,222.061783,8882.471304
1395.768119,2681.334243,-370.102971,8734.430116
1395.768438,2451.505594,-666.185348,9252.574275
1395.768757,1762.019645,-296.082377,8956.491898
1395.769076,1072.533697,-370.102971,9400.615463
1395.769394,0.000000,-592.164754,9474.636058
1395.769713,-536.266849,-666.185348,10066.800811
1395.770032,-919.314598,-370.102971,9918.759623
1395.770351,-1532.190996,-148.041188,10362.883188
1395.770670,-1991.848295,-666.185348,10436.903782
1395.770989,-2604.724693,-962.267725,10881.027347
1395.771307,-2221.676944,-888.247130,10881.027347
1395.771626,-1838.629195,-0.000000,10214.842000
1395.771945,-1608.800546,444.123565,9844.739029
1395.772264,-1072.533697,1110.308913,9326.594869
1395.772583,383.047749,1554.432478,9030.512492
1395.772902,919.314598,1702.473667,8142.265362
1395.773220,1302.362347,2220.617826,7698.141797
1395.773539,1608.800546,1628.453072,7402.059420
1395.773858,1378.971896,1184.329507,7624.121203
1395.774177,1225.752797,1702.473667,7624.121203
1395.774496,689.485948,1998.556043,7254.018232
1395.774815,383.047749,1702.473667,7550.100608
1395.775133,-229.828649,962.267725,8216.285956
1395.775452,0.000000,666.185348,8290.306550
1395.775771,-536.266849,1110.308913,8068.244768
1395.776090,-1072.533697,814.226536,8808.450710
1395.776409,-689.485948,296.082377,9400.615463
1395.776728,-689.485948,518.144159,9844.739029
1395.777046,-919.314598,1110.308913,9474.636058
1395.777365,0.000000,1998.556043,9400.615463
1395.777684,689.485948,1850.514855,9474.636058
1395.778003,1838.629195,1480.411884,9104.533087
1395.778322,1685.410096,1850.514855,8290.306550
1395.778641,2604.724693,2220.617826,7920.203579
1395.778959,2528.115143,1628.453072,8290.306550
1395.779278,2528.115143,518.144159,8586.388927
1395.779597,2145.067394,-0.000000,9178.553681
1395.779916,1685.410096,-74.020594,9252.574275
1395.780235,153.219100,-666.185348,9696.697840
1395.780554,229.828649,-888.247130,10510.924376
1395.780872,-383.047749,-1406.391290,10362.883188
1395.781191,-612.876398,-888.247130,10288.862594
1395.781510,-689.485948,-888.247130,10510.924376
1395.781829,-766.095498,-1332.370696,11029.068536
1395.782148,-459.657299,-1554.432478,11547.212695
1395.782467,-306.438199,-1110.308913,11103.089130
1395.782785,-689.485948,-296.082377,10881.027347
1395.783104,76.609550,-0.000000,9622.677246
1395.783423,1072.533697,296.082377,10066.800811
1395.783742,1532.190996,148.041188,9548.656652
1395.784061,1915.238745,1110.308913,8734.430116
1395.784380,2298.286494,1184.329507,8734.430116
1395.784698,2145.067394,296.082377,9326.594869
1395.785017,1685.410096,-0.000000,9474.636058
1395.785336,842.705048,-0.000000,8882.471304
1395.785655,0.000000,666.185348,9178.553681
1395.785974,-459.657299,370.102971,9252.574275
1395.786293,-689.485948,-0.000000,9474.636058
1395.786611,-689.485948,370.102971,9326.594869
1395.786930,-842.705048,444.123565,9178.553681
1395.787249,-995.924147,222.061783,9030.512492
1395.787568,-229.828649,-222.061783,9104.533087
1395.787887,-306.438199,-296.082377,9622.677246
1395.788206,-153.219100,740.205942,8808.450710
1395.788524,76.609550,1036.288319,8512.368333
1395.788843,842.705048,1036.288319,8956.491898
1395.789162,1762.019645,666.185348,9030.512492
1395.789481,2145.067394,2146.597232,7698.141797
1395.789800,1915.238745,1850.514855,7179.997637
1395.790119,2298.286494,1480.411884,7698.141797
1395.790437,2298.286494,592.164754,8216.285956
1395.790756,1302.362347,370.102971,8438.347739
1395.791075,306.438199,814.226536,8512.368333
1395.791394,0.000000,666.185348,8882.471304
1395.791713,-536.266849,-0.000000,9400.615463
1395.792032,-612.876398,-370.102971,9770.718434
1395.792350,-612.876398,-0.000000,9252.574275
1395.792669,-842.705048,-148.041188,9252.574275
1395.792988,-766.095498,-592.164754,9770.718434
1395.793307,0.000000,-666.185348,9992.780217
1395.793626,153.219100,-0.000000,9548.656652
1395.793945,229.828649,666.185348,9548.656652
1395.794263,306.438199,666.185348,9400.615463
1395.794582,995.924147,518.144159,8882.471304
1395.794901,1991.848295,962.267725,8882.471304
1395.795220,2374.896044,1480.411884,8586.388927
1395.795539,2374.896044,1110.308913,8364.327145
1395.795858,2221.676944,-0.000000,9252.574275
1395.796176,2068.457845,-222.061783,9548.656652
1395.796495,1378.971896,592.164754,9474.636058
1395.796814,612.876398,592.164754,9474.636058
1395.797133,459.657299,666.185348,9770.718434
1395.797452,0.000000,444.123565,9918.759623
1395.797771,-76.609550,222.061783,9548.656652
1395.798089,-383.047749,296.082377,9844.739029
1395.798408,-612.876398,-370.102971,10436.903782
1395.798727,-995.924147,-1110.308913,10881.027347
1395.799046,-919.314598,-666.185348,10955.047942
1395.799365,-229.828649,-148.041188,10214.842000
1395.799684,-459.657299,370.102971,9696.697840
1395.800002,459.657299,148.041188,10214.842000
1395.800321,995.924147,518.144159,9918.759623
1395.800640,1762.019645,1184.329507,8956.491898
1395.800959,2221.676944,1184.329507,8364.327145
1395.801278,2145.067394,370.102971,9104.533087
1395.801597,1838.629195,-518.144159,9178.553681
1395.801915,1455.581446,-222.061783,8808.450710
1395.802234,689.485948,592.164754,8290.306550
1395.802553,842.705048,148.041188,8660.409521
1395.802872,612.876398,-74.020594,8882.471304
1395.803191,306.438199,-0.000000,9178.553681
1395.803510,0.000000,518.144159,8734.430116
1395.803828,-536.266849,444.123565,8734.430116
1395.804147,-536.266849,-74.020594,9844.739029
1395.804466,-536.266849,-370.102971,10510.924376
1395.804785,-842.705048,592.164754,9770.718434
1395.805104,-612.876398,962.267725,9474.636058
1395.805423,0.000000,888.247130,9474.636058
1395.805741,995.924147,1110.308913,9178.553681
1395.806060,1532.190996,1406.391290,8438.347739
1395.806379,1838.629195,1924.535449,7550.100608
1395.806698,1608.800546,1036.288319,7402.059420
1395.807017,1762.019645,370.102971,8216.285956
1395.807336,1455.581446,-0.000000,7994.224174
1395.807654,1072.533697,296.082377,7846.182985
1395.807973,306.438199,444.123565,8068.244768
1395.808292,0.000000,-222.061783,8808.450710
1395.808611,153.219100,-148.041188,9326.594869
1395.808930,0.000000,-74.020594,9252.574275
1395.809249,-306.438199,-0.000000,9474.636058
1395.809567,-689.485948,-370.102971,9992.780217
1395.809886,-536.266849,-1184.329507,10510.924376
1395.810205,-459.657299,-296.082377,10807.006753
1395.810524,-459.657299,444.123565,9844.739029
1395.810843,459.657299,592.164754,9992.780217
1395.811162,1225.752797,518.144159,9770.718434
1395.811480,2221.676944,370.102971,9548.656652
1395.811799,2757.943793,1184.329507,8142.265362
1395.812118,2834.553343,1258.350101,7920.203579
1395.812437,2528.115143,-74.020594,8364.327145
1395.812756,2374.896044,-740.205942,9252.574275
1395.813075,1608.800546,-370.102971,9104.533087
1395.813393,536.266849,-222.061783,8660.409521
1395.813712,0.000000,-370.102971,9474.636058
1395.814031,-383.047749,-1110.308913,10066.800811
1395.814350,-1072.533697,-1110.308913,10140.821405
1395.814669,-1608.800546,-222.061783,10140.821405
1395.814988,-1302.362347,-148.041188,10510.924376
1395.815306,-1685.410096,-518.144159,10881.027347
1395.815625,-919.314598,-148.041188,10955.047942
1395.815944,-459.657299,1036.288319,10140.821405
1395.816263,-153.219100,1406.391290,9474.636058
1395.816582,842.705048,1184.329507,9326.594869
1395.816901,2374.896044,1628.453072,9104.533087
1395.817219,2834.553343,2294.638420,8142.265362
1395.817538,2834.553343,1998.556043,7476.080014
1395.817857,2604.724693,1776.494261,7550.100608
1395.818176,2451.505594,1036.288319,8512.368333
1395.818495,1915.238745,962.267725,8512.368333
1395.818814,689.485948,1036.288319,8068.244768
1395.819133,-306.438199,444.123565,9400.615463
1395.819451,-995.924147,-74.020594,9844.739029
1395.819770,-1072.533697,-740.205942,10140.821405
1395.820089,-1378.971896,-444.123565,10066.800811
1395.820408,-1915.238745,-222.061783,9918.759623
1395.820727,-1378.971896,-962.267725,10362.883188
1395.821046,-689.485948,-1036.288319,10658.965565
1395.821364,0.000000,-74.020594,10066.800811
1395.821683,459.657299,1036.288319,9178.553681
1395.822002,1225.752797,1554.432478,8438.347739
1395.822321,2451.505594,1628.453072,8438.347739
1395.822640,3370.820191,1628.453072,8142.265362
1395.822959,3217.601092,1850.514855,7328.038826
1395.823277,2604.724693,1258.350101,7846.182985
1395.823596,2604.724693,-0.000000,8660.409521
1395.823915,2145.067394,-0.000000,9030.512492
1395.824234,1072.533697,-0.000000,9104.533087
1395.824553,0.000000,222.061783,8882.471304
1395.824872,-536.266849,-74.020594,9622.677246
1395.825190,-842.705048,-222.061783,9770.718434
1395.825509,-1455.581446,-74.020594,9770.718434
1395.825828,-1455.581446,222.061783,9770.718434
1395.826147,-1455.581446,-444.123565,10214.842000
1395.826466,-1378.971896,-592.164754,10362.883188
1395.826785,-842.705048,-222.061783,9770.718434
1395.827103,-383.047749,518.144159,9178.553681
1395.827422,76.609550,814.226536,9104.533087
1395.827741,995.924147,592.164754,9474.636058
1395.828060,1455.581446,740.205942,8660.409521
1395.828379,1532.190996,1332.370696,7994.224174
1395.828698,1685.410096,740.205942,8142.265362
1395.829016,1149.143247,-0.000000,8956.491898
1395.829335,689.485948,-962.267725,9326.594869
1395.829654,-229.828649,-740.205942,9918.759623
1395.829973,-766.095498,-0.000000,9622.677246
1395.830292,-919.314598,-370.102971,9918.759623
1395.830611,-459.657299,-518.144159,10140.821405
1395.830929,0.000000,-518.144159,10436.903782
1395.831248,0.000000,222.061783,10214.842000
1395.831567,-306.438199,296.082377,9178.553681
1395.831886,153.219100,-740.205942,9844.739029
1395.832205,383.047749,-814.226536,10140.821405
1395.832524,1149.143247,-148.041188,9474.636058
1395.832842,919.314598,370.102971,8808.450710
1395.833161,1455.581446,592.164754,8882.471304
1395.833480,2374.896044,518.144159,8882.471304
1395.833799,2528.115143,1110.308913,8068.244768
1395.834118,2451.505594,1332.370696,7624.121203
1395.834437,2068.457845,1258.350101,7920.203579
1395.834755,1762.019645,1184.329507,8586.388927
1395.835074,1455.581446,444.123565,9030.512492
1395.835393,383.047749,740.205942,9178.553681
1395.835712,0.000000,666.185348,8586.388927
1395.836031,-459.657299,222.061783,9252.574275
1395.836350,-306.438199,444.123565,9178.553681
1395.836668,-153.219100,1036.288319,8808.450710
1395.836987,-229.828649,1036.288319,8882.471304
1395.837306,-536.266849,518.144159,9400.615463
1395.837625,-76.609550,518.144159,9622.677246
1395.837944,-306.438199,1332.370696,9622.677246
1395.838263,-153.219100,1628.453072,9474.636058
1395.838581,0.000000,1110.308913,9474.636058
1395.838900,306.438199,1184.329507,9548.656652
1395.839219,153.219100,592.164754,9326.594869
1395.839538,612.876398,1332.370696,8586.388927
1395.839857,689.485948,1258.350101,8438.347739
1395.840176,766.095498,222.061783,8882.471304
1395.840494,153.219100,-74.020594,9178.553681
1395.840813,-459.657299,-222.061783,8882.471304
1395.841132,-842.705048,740.205942,8660.409521
1395.841451,-919.314598,370.102971,9326.594869
1395.841770,-766.095498,-148.041188,9918.759623
1395.842089,-766.095498,148.041188,9770.718434
1395.842407,-1072.533697,592.164754,9474.636058
1395.842726,-689.485948,-0.000000,10658.965565
1395.843045,-689.485948,-0.000000,10510.924376
1395.843364,383.047749,-0.000000,10510.924376
1395.843683,306.438199,518.144159,10214.842000
1395.844002,1149.143247,1332.370696,10066.800811
1395.844320,1685.410096,962.267725,9844.739029
1395.844639,2451.505594,1184.329507,9474.636058
1395.844958,3140.991542,2220.617826,8956.491898
1395.845277,3370.820191,2146.597232,8068.244768
1395.845596,3217.601092,1554.432478,7994.224174
1395.845915,2834.553343,148.041188,8734.430116
1395.846233,2528.115143,-0.000000,9030.512492
1395.846552,1532.190996,296.082377,8290.306550
1395.846871,1072.533697,74.020594,8808.450710
1395.847190,536.266849,-0.000000,9474.636058
1395.847509,229.828649,-592.164754,9918.759623
1395.847828,-306.438199,-74.020594,9622.677246
1395.848146,-995.924147,-74.020594,9474.636058
1395.848465,-842.705048,-740.205942,10066.800811
1395.848784,-1149.143247,-1036.288319,10955.047942
1395.849103,-842.705048,-370.102971,10584.944971
1395.849422,-919.314598,-0.000000,9844.739029
1395.849741,-689.485948,-74.020594,9696.697840
1395.850059,383.047749,-0.000000,9770.718434
1395.850378,1608.800546,444.123565,9178.553681
1395.850697,1072.533697,740.205942,8068.244768
1395.851016,1378.971896,814.226536,7994.224174
1395.851335,1455.581446,-0.000000,8586.388927
1395.851654,1608.800546,-296.082377,8290.306550
1395.851972,1149.143247,-74.020594,8290.306550
1395.852291,76.609550,-74.020594,7846.182985
1395.852610,-536.266849,-666.185348,8808.450710
1395.852929,-536.266849,-1184.329507,8882.471304
1395.853248,-1149.143247,-1184.329507,8734.430116
1395.853567,-1532.190996,-814.226536,9178.553681
1395.853885,-1915.238745,-1036.288319,9770.718434
1395.854204,-1532.190996,-1258.350101,10288.862594
1395.854523,-1608.800546,-592.164754,10362.883188
1395.854842,-1149.143247,1036.288319,9992.780217
1395.855161,-919.314598,1406.391290,9400.615463
1395.855480,612.876398,1702.473667,9400.615463
1395.855798,1608.800546,1850.514855,8438.347739
1395.856117,2451.505594,2146.597232,8142.265362
1395.856436,2681.334243,1332.370696,7698.141797
1395.856755,2987.772442,1184.329507,8068.244768
1395.857074,2757.943793,444.123565,8068.244768
1395.857393,2145.067394,888.247130,8290.306550
1395.857711,1608.800546,888.247130,8512.368333
1395.858030,689.485948,370.102971,8512.368333
1395.858349,0.000000,666.185348,8882.471304
1395.858668,0.000000,592.164754,9252.574275
1395.858987,-689.485948,1110.308913,9104.533087
1395.859306,-995.924147,-0.000000,9696.697840
1395.859624,-1302.362347,-444.123565,10881.027347
1395.859943,-1225.752797,-0.000000,11251.130318
1395.860262,-612.876398,-296.082377,10807.006753
1395.860581,0.000000,666.185348,10214.842000
1395.860900,383.047749,740.205942,10066.800811
1395.861219,2145.067394,666.185348,9918.759623
1395.861537,2681.334243,1628.453072,8586.388927
1395.861856,3677.258390,1554.432478,8290.306550
1395.862175,3217.601092,1406.391290,7920.203579
1395.862494,2757.943793,1258.350101,8512.368333
1395.862813,2068.457845,296.082377,8882.471304
1395.863132,1455.581446,1110.308913,9030.512492
1395.863450,612.876398,814.226536,9400.615463
1395.863769,-536.266849,370.102971,9474.636058
1395.864088,-689.485948,-0.000000,10362.883188
1395.864407,-1072.533697,296.082377,10140.821405
1395.864726,-1378.971896,296.082377,10288.862594
1395.865045,-1225.752797,-592.164754,11103.089130
1395.865363,-1685.410096,-1036.288319,11399.171507
1395.865682,-1378.971896,-296.082377,11251.130318
1395.866001,-919.314598,370.102971,10436.903782
1395.866320,383.047749,1184.329507,9622.677246
1395.866639,612.876398,444.123565,9474.636058
1395.866958,1225.752797,962.267725,8956.491898
1395.867276,1838.629195,1998.556043,7772.162391
1395.867595,1915.238745,1554.432478,7328.038826
1395.867914,1225.752797,740.205942,7994.224174
1395.868233,995.924147,-74.020594,9030.512492
1395.868552,0.000000,444.123565,8438.347739
1395.868871,-689.485948,666.185348,8882.471304
1395.869190,-1685.410096,-0.000000,9326.594869
1395.869508,-1762.019645,-148.041188,10140.821405
1395.869827,-1762.019645,296.082377,9844.739029
1395.870146,-1455.581446,592.164754,9622.677246
1395.870465,-1532.190996,296.082377,9770.718434
1395.870784,-919.314598,-148.041188,10436.903782
1395.871103,-459.657299,148.041188,9844.739029
1395.871421,229.828649,1406.391290,9030.512492
1395.871740,842.705048,1480.411884,8512.368333
1395.872059,1685.410096,888.247130,8882.471304
1395.872378,2834.553343,888.247130,8660.409521
1395.872697,3294.210641,1332.370696,7772.162391
1395.873015,3677.258390,1628.453072,7179.997637
1395.873334,3370.820191,296.082377,7846.182985
1395.873653,3064.381992,-814.226536,8364.327145
1395.873972,2451.505594,-370.102971,9104.533087
1395.874291,1455.581446,-0.000000,8290.306550
1395.874610,612.876398,222.061783,8734.430116
1395.874928,612.876398,-592.164754,9474.636058
1395.875247,995.924147,-444.123565,9622.677246
1395.875566,459.657299,74.020594,9474.636058
1395.875885,459.657299,-666.185348,9548.656652
1395.876204,612.876398,-962.267725,10584.944971
1395.876523,842.705048,-888.247130,10732.986159
1395.876841,1072.533697,222.061783,9918.759623
1395.877160,1685.410096,814.226536,9400.615463
1395.877479,2298.286494,370.102971,9326.594869
1395.877798,2604.724693,444.123565,9030.512492
1395.878117,3064.381992,740.205942,8512.368333
1395.878436,3294.210641,666.185348,8068.244768
1395.878754,2068.457845,-148.041188,7994.224174
1395.879073,1149.143247,-1702.473667,8956.491898
1395.879392,306.438199,-1924.535449,9252.574275
1395.879711,0.000000,-814.226536,8956.491898
1395.880030,-995.924147,-1036.288319,9178.553681
1395.880349,-1762.019645,-814.226536,9474.636058
1395.880667,-2145.067394,-1184.329507,9548.656652
1395.880986,-2221.676944,-666.185348,9548.656652
1395.881305,-2451.505594,-222.061783,9844.739029
1395.881624,-2834.553343,-444.123565,9844.739029
1395.881943,-2528.115143,-296.082377,9548.656652
1395.882261,-2604.724693,222.061783,9770.718434
1395.882580,-2068.457845,592.164754,10214.842000
1395.882899,-1762.019645,1036.288319,9474.636058
1395.883218,-612.876398,1110.308913,9622.677246
1395.883537,306.438199,1776.494261,9474.636058
1395.883856,1225.752797,1998.556043,8734.430116
1395.884174,1072.533697,1998.556043,7846.182985
1395.884493,1455.581446,1184.329507,8586.388927
1395.884812,1608.800546,148.041188,9030.512492
1395.885131,1915.238745,-296.082377,9030.512492
1395.885450,842.705048,666.185348,9030.512492
1395.885769,1991.848295,1924.535449,8290.306550
1395.886087,689.485948,1924.535449,6735.874072
1395.886406,1225.752797,1110.308913,8364.327145
1395.886725,1685.410096,666.185348,9400.615463
1395.887044,1532.190996,1332.370696,8068.244768
1395.887363,1685.410096,296.082377,9474.636058
1395.887682,842.705048,518.144159,10066.800811
1395.888000,995.924147,1184.329507,10066.800811
1395.888319,1455.581446,666.185348,9770.718434
1395.888638,536.266849,148.041188,9992.780217
1395.888957,2145.067394,740.205942,10807.006753
1395.889276,2221.676944,2146.597232,8956.491898
1395.889595,2604.724693,2960.823768,8882.471304
1395.889913,3294.210641,2368.659014,9030.512492
1395.890232,1915.238745,1850.514855,9104.533087
1395.890551,1532.190996,-0.000000,8512.368333
1395.890870,995.924147,296.082377,9400.615463
1395.891189,-306.438199,740.205942,8512.368333
1395.891508,0.000000,-74.020594,9474.636058
1395.891826,-766.095498,-0.000000,9178.553681
1395.892145,-1149.143247,-1184.329507,9844.739029
1395.892464,-2145.067394,-1406.391290,9696.697840
1395.892783,-2451.505594,-1110.308913,10732.986159
1395.893102,-1685.410096,-1406.391290,11547.212695
1395.893420,-2068.457845,-0.000000,10066.800811
1395.893739,-1762.019645,814.226536,10066.800811
1395.894058,-1378.971896,814.226536,10140.821405
1395.894377,-1302.362347,-0.000000,9992.780217
1395.894696,689.485948,-0.000000,10066.800811
1395.895015,842.705048,1554.432478,8290.306550
1395.895333,1532.190996,1554.432478,8290.306550
1395.895652,1225.752797,222.061783,8438.347739
1395.895971,1455.581446,-888.247130,10066.800811
1395.896290,1225.752797,-296.082377,9844.739029
1395.896609,689.485948,962.267725,8142.265362
1395.896928,229.828649,1036.288319,8290.306550
1395.897246,0.000000,-74.020594,9844.739029
1395.897565,-766.095498,-222.061783,9030.512492
1395.897884,-766.095498,-0.000000,8586.388927
1395.898203,-1302.362347,-814.226536,9474.636058
1395.898522,-1455.581446,-1184.329507,10066.800811
1395.898841,-842.705048,-1406.391290,10140.821405
1395.899159,-689.485948,-1036.288319,9696.697840
1395.899478,-306.438199,-814.226536,9474.636058
1395.899797,383.047749,-296.082377,9400.615463
1395.900116,1762.019645,296.082377,9326.594869
1395.900435,3524.039291,962.267725,7994.224174
1395.900754,3140.991542,1628.453072,7624.121203
1395.901072,3370.820191,-0.000000,8660.409521
1395.901391,3370.820191,-518.144159,8438.347739
1395.901710,3294.210641,740.205942,7550.100608
1395.902029,3140.991542,1480.411884,7550.100608
1395.902348,2298.286494,1258.350101,8216.285956
1395.902666,1838.629195,444.123565,8216.285956
1395.902985,1072.533697,370.102971,8956.491898
1395.903304,995.924147,666.185348,8808.450710
1395.903623,229.828649,296.082377,9252.574275
1395.903942,306.438199,-0.000000,9548.656652
1395.904261,-229.828649,-592.164754,9992.780217
1395.904579,-383.047749,-518.144159,9770.718434
1395.904898,-689.485948,222.061783,10658.965565
1395.905217,229.828649,666.185348,9548.656652
1395.905536,842.705048,1110.308913,8586.388927
1395.905855,1762.019645,1332.370696,8660.409521
1395.906174,1838.629195,1406.391290,7994.224174
1395.906492,1532.190996,444.123565,7846.182985
1395.906811,1225.752797,-518.144159,8956.491898
1395.907130,995.924147,-222.061783,9326.594869
1395.907449,383.047749,518.144159,8438.347739
1395.907768,-76.609550,518.144159,8660.409521
1395.908087,-459.657299,-0.000000,9696.697840
1395.908405,-383.047749,-370.102971,9474.636058
1395.908724,-689.485948,-370.102971,9992.780217
1395.909043,-1149.143247,296.082377,10140.821405
